time,ax,ay,az,atotal
0.002947092056274414,-0.11,0.03,-0.12,0.16
0.004879951477050781,0.01,0.12,-0.01,0.12
0.00653386116027832,0.19,0.09,0.04,0.21
0.009187936782836914,0.31,-0.03,-0.07,0.31
0.018976926803588867,0.25,-0.03,-0.05,0.25
0.029462099075317383,0.13,-0.01,0.01,0.13
0.03887009620666504,0.01,0.0,-0.07,0.07
0.04870104789733887,-0.05,0.05,-0.06,0.09
0.059092044830322266,-0.04,0.06,0.05,0.08
0.06890201568603516,-0.04,0.04,0.07,0.09
0.09715700149536133,-0.01,0.06,-0.04,0.07
0.09889006614685059,0.04,0.04,-0.1,0.11
0.10105586051940918,0.01,0.04,-0.07,0.08
0.10835695266723633,-0.04,0.07,0.0,0.08
0.11842608451843262,0.02,0.08,-0.08,0.11
0.1283719539642334,0.02,0.06,-0.07,0.09
0.13864803314208984,-0.05,0.06,0.02,0.08
0.14844393730163574,-0.03,0.02,-0.03,0.04
0.15855193138122559,0.02,0.0,-0.17,0.17
0.1683349609375,0.05,0.01,-0.09,0.1
0.19770216941833496,0.03,0.04,0.04,0.06
0.19934916496276855,0.03,0.04,0.07,0.08
0.2013540267944336,-0.01,0.06,0.02,0.06
0.20767903327941895,-0.07,0.07,0.01,0.09
0.2176668643951416,-0.09,0.05,0.01,0.1
0.22766494750976562,-0.02,0.05,-0.1,0.11
0.2376270294189453,0.13,0.06,-0.24,0.27
0.2475290298461914,0.29,0.04,-0.27,0.39
0.2574620246887207,0.38,-0.01,-0.13,0.4
0.26757001876831055,0.41,-0.09,0.04,0.42
0.3035118579864502,0.36,-0.18,0.06,0.4
0.3054168224334717,0.23,-0.08,-0.03,0.24
0.3069288730621338,0.13,0.07,0.02,0.14
0.3097341060638428,0.13,0.17,0.18,0.27
0.3167698383331299,0.19,0.16,0.33,0.41
0.32715296745300293,0.15,0.05,0.37,0.4
0.33696794509887695,0.01,-0.08,0.29,0.3
0.3469870090484619,-0.13,-0.09,0.25,0.29
0.35670995712280273,-0.1,0.02,0.18,0.2
0.366771936416626,0.02,0.2,0.04,0.2
0.4020540714263916,0.14,0.29,-0.08,0.33
0.4040238857269287,0.13,0.14,-0.21,0.28
0.40550804138183594,0.03,-0.09,-0.36,0.37
0.40807294845581055,-0.06,-0.19,-0.48,0.51
0.41631007194519043,-0.21,-0.15,-0.5,0.56
0.4264049530029297,-0.4,0.09,-0.4,0.57
0.43589091300964355,-0.61,0.24,-0.27,0.7
0.446321964263916,-0.85,0.27,-0.09,0.89
0.4560420513153076,-0.9,0.3,0.11,0.95
0.46595001220703125,-0.56,0.17,0.1,0.59
0.501335859298706,-0.24,0.05,0.12,0.27
0.5032718181610107,-0.14,0.11,0.28,0.33
0.5046098232269287,-0.13,0.2,0.32,0.39
0.5077469348907471,-0.17,0.2,0.38,0.46
0.51534104347229,-0.25,0.18,0.55,0.63
0.5254209041595459,-0.41,0.13,0.52,0.67
0.5355269908905029,-0.57,0.06,0.45,0.72
0.5455329418182373,-0.69,0.09,0.47,0.83
0.5561280250549316,-0.75,0.15,0.46,0.89
0.5655338764190674,-0.76,0.22,0.31,0.84
0.5987460613250732,-0.78,0.27,0.17,0.84
0.6004421710968018,-0.83,0.27,0.15,0.88
0.6016781330108643,-0.92,0.2,0.12,0.94
0.6047260761260986,-1.02,0.11,0.1,1.03
0.6148419380187988,-1.03,0.09,0.34,1.08
0.6246168613433838,-0.9,0.15,0.36,0.98
0.6348111629486084,-0.6,0.11,0.3,0.67
0.6447999477386475,-0.2,-0.07,0.45,0.49
0.6546461582183838,0.14,-0.35,0.62,0.72
0.6645171642303467,0.36,-0.64,0.66,0.98
0.6744768619537354,0.49,-0.92,0.59,1.19
0.7048609256744385,0.56,-1.35,0.32,1.49
0.7065508365631104,0.58,-2.0,-0.37,2.11
0.7080399990081787,0.38,-2.72,-1.15,2.97
0.713878870010376,0.07,-3.58,-2.05,4.12
0.7242929935455322,-0.01,-4.38,-3.53,5.62
0.7339909076690674,-0.25,-4.77,-4.74,6.72
0.7443249225616455,-1.56,-5.07,-4.53,6.97
0.7539660930633545,-3.45,-5.61,-2.84,7.17
0.7640321254730225,-4.75,-6.16,-1.31,7.88
0.7737791538238525,-4.97,-6.53,-0.07,8.2
0.8041329383850098,-4.46,-6.62,1.29,8.08
0.8056490421295166,-4.2,-6.34,1.94,7.84
0.8069989681243896,-4.51,-5.78,1.77,7.54
0.8131310939788818,-5.49,-5.07,1.51,7.62
0.8237130641937256,-6.82,-4.4,1.78,8.3
0.8334028720855713,-7.6,-3.55,2.17,8.66
0.8434150218963623,-7.45,-2.6,2.35,8.23
0.852989912033081,-6.83,-1.86,2.13,7.39
0.8632299900054932,-6.13,-1.37,1.79,6.53
0.8730008602142334,-5.35,-1.13,1.89,5.78
0.9041759967803955,-4.53,-1.03,2.27,5.17
0.9056971073150635,-3.88,-0.83,2.68,4.78
0.9070219993591309,-3.39,-0.46,2.88,4.47
0.9123818874359131,-2.97,0.05,2.74,4.04
0.9224941730499268,-2.61,0.6,2.33,3.54
0.9327099323272705,-2.49,1.22,1.82,3.31
0.9430780410766602,-2.78,1.76,1.67,3.68
0.9532201290130615,-3.24,2.17,2.0,4.38
0.9631400108337402,-3.36,2.52,2.52,4.89
0.9726309776306152,-3.22,3.33,2.38,5.2
1.002864122390747,-2.94,4.05,1.68,5.27
1.004554033279419,-2.57,4.4,1.24,5.24
1.0060608386993408,-1.89,4.69,1.37,5.23
1.0116770267486572,-0.75,4.66,1.56,4.97
1.021785020828247,0.46,4.5,1.35,4.72
1.0321681499481201,1.43,4.59,0.95,4.9
1.0419590473175049,2.22,4.83,0.71,5.36
1.0517351627349854,2.82,5.03,0.58,5.79
1.0616910457611084,3.31,5.1,0.32,6.08
1.0715811252593994,3.76,5.08,0.1,6.32
1.1067421436309814,3.98,4.98,0.0,6.37
1.108374834060669,4.16,4.72,-0.24,6.29
1.1106131076812744,4.42,4.55,-0.62,6.37
1.1133291721343994,4.75,4.69,-0.9,6.73
1.121124029159546,5.28,4.88,-1.02,7.26
1.1311838626861572,5.76,5.18,-1.42,7.87
1.1410229206085205,5.91,5.54,-2.09,8.36
1.1512959003448486,5.27,5.67,-2.39,8.1
1.1608850955963135,4.2,5.37,-1.81,7.05
1.1708550453186035,3.61,4.87,-0.84,6.12
1.2068631649017334,3.58,4.58,-0.43,5.82
1.2085559368133545,3.9,4.3,-0.34,5.81
1.2107040882110596,4.21,4.43,-0.54,6.13
1.2134380340576172,4.68,4.71,0.01,6.63
1.2202379703521729,5.42,4.23,-0.25,6.87
1.230247974395752,3.71,2.43,-11.83,12.63
1.2404239177703857,1.53,-4.49,-19.73,20.29
1.2506020069122314,2.85,-23.11,-4.55,23.72
1.2609589099884033,0.25,-31.89,19.76,37.51
1.2701680660247803,-3.82,-14.37,16.2,21.98
1.3036959171295166,-1.67,-2.94,-5.78,6.69
1.3054149150848389,0.86,1.82,-8.36,8.59
1.307689905166626,3.39,4.73,0.74,5.86
1.310528039932251,3.09,6.82,2.76,7.97
1.3196990489959717,2.44,8.53,-2.0,9.09
1.3297569751739502,3.38,9.78,-4.41,11.24
1.339656114578247,4.7,8.97,-0.64,10.14
1.3495371341705322,4.59,5.63,1.79,7.48
1.3601059913635254,3.37,1.2,1.06,3.73
1.3696930408477783,1.88,-3.9,0.6,4.37
1.4051289558410645,0.76,-8.83,0.69,8.88
1.4068479537963867,0.8,-10.35,0.4,10.38
1.4090709686279297,1.52,-6.8,0.18,6.97
1.411863088607788,1.23,-2.7,-0.57,3.02
1.4187979698181152,0.15,-0.57,-1.31,1.43
1.4288370609283447,-1.09,0.46,-1.31,1.76
1.4387481212615967,-1.77,1.0,-1.38,2.45
1.448882818222046,-1.66,1.1,-1.52,2.5
1.4587490558624268,-1.08,0.71,-1.51,1.98
1.4689390659332275,-0.52,0.08,-1.17,1.28
1.4789330959320068,-0.35,-0.17,-1.06,1.12
1.508491039276123,-0.03,-0.03,-1.33,1.33
1.5105111598968506,-0.15,-0.23,-0.82,0.86
1.5120389461517334,-0.51,-0.89,-0.3,1.06
1.5179979801177979,-0.55,-1.69,-0.34,1.8
1.5284740924835205,-0.53,-1.97,-0.37,2.07
1.5385019779205322,-0.5,-1.62,-0.74,1.84
1.548525094985962,-0.55,-1.14,-0.66,1.42
1.5578529834747314,-0.68,-0.69,0.56,1.11
1.5680820941925049,-0.2,-0.33,0.87,0.95
1.5782148838043213,0.83,0.01,0.63,1.04
1.607409954071045,1.34,0.47,0.79,1.62
1.6091580390930176,1.41,0.95,0.46,1.76
1.6114490032196045,1.01,1.14,0.09,1.52
1.6173369884490967,0.4,0.6,-0.02,0.72
1.6276938915252686,-0.07,-0.49,-0.43,0.65
1.637267827987671,-0.36,-1.69,-0.8,1.9
1.6471798419952393,-0.49,-2.62,-0.64,2.74
1.6573989391326904,-1.06,-2.93,0.01,3.11
1.6673648357391357,-1.64,-2.48,-0.27,2.98
1.6772358417510986,-1.84,-1.73,-0.91,2.68
1.7082698345184326,-2.03,-1.3,-0.4,2.44
1.7099721431732178,-2.08,-1.41,0.41,2.54
1.7121999263763428,-2.16,-1.81,0.67,2.89
1.716606855392456,-1.91,-2.14,0.58,2.92
1.7269728183746338,-1.36,-2.36,1.0,2.9
1.736685037612915,-1.02,-2.25,1.62,2.95
1.746791124343872,-0.98,-2.12,1.73,2.9
1.7563321590423584,-1.02,-2.12,1.89,3.01
1.7666740417480469,-1.22,-2.37,2.57,3.7
1.77669095993042,-1.29,-2.57,3.17,4.27
1.8080909252166748,-1.66,-3.27,2.7,4.55
1.809622049331665,-3.17,-4.99,1.79,6.17
1.8109869956970215,-5.26,-7.17,0.47,8.9
1.8159210681915283,-6.18,-8.86,-0.51,10.81
1.8262650966644287,-5.5,-8.13,-0.13,9.81
1.8361070156097412,-6.2,-5.04,0.35,7.99
1.846039056777954,-8.64,-2.04,-1.01,8.93
1.8557109832763672,-10.59,-2.01,-3.96,11.48
1.8659570217132568,-11.57,-4.71,-5.24,13.54
1.8757660388946533,-9.24,-8.8,-2.4,12.98
1.913301944732666,-4.4,-11.41,-1.37,12.3
1.9150450229644775,-3.35,-11.45,-3.86,12.53
1.9165880680084229,-5.2,-10.27,-3.33,11.98
1.919417142868042,-5.18,-9.12,-1.58,10.6
1.9251759052276611,-4.0,-7.72,-0.93,8.74
1.9352848529815674,-2.57,-6.51,-0.93,7.06
1.9453189373016357,-1.13,-6.07,-1.12,6.27
1.955031156539917,-0.06,-5.93,-1.44,6.1
1.9652130603790283,0.77,-5.97,-1.0,6.1
1.9751639366149902,0.88,-5.75,0.01,5.81
2.0124781131744385,-0.58,-4.55,1.41,4.79
2.0141890048980713,-2.98,-2.68,2.87,4.92
2.015631914138794,-4.38,-0.82,3.9,5.92
2.0184171199798584,-4.53,0.88,4.26,6.28
2.0245158672332764,-4.21,2.55,3.98,6.32
2.0346059799194336,-4.01,4.31,3.89,7.05
2.044450044631958,-3.93,6.09,4.02,8.28
2.054533004760742,-4.47,7.64,5.07,10.2
2.064445972442627,-5.18,8.65,5.35,11.41
2.074542999267578,-5.99,8.73,4.34,11.44
2.1111581325531006,-6.72,8.59,3.74,11.52
2.1126930713653564,-6.55,8.39,4.31,11.48
2.1140730381011963,-5.01,7.83,4.21,10.2
2.116819143295288,-3.65,7.95,3.95,9.59
2.124069929122925,-2.03,8.05,3.38,8.96
2.1338651180267334,-0.5,7.72,2.41,8.1
2.143982172012329,0.8,7.54,2.0,7.84
2.1536519527435303,1.93,7.82,2.06,8.31
2.1637790203094482,3.14,8.32,1.76,9.06
2.173452138900757,4.54,8.64,0.2,9.76
2.2096259593963623,5.75,8.59,-1.61,10.46
2.2111639976501465,6.62,8.36,-2.87,11.04
2.212553024291992,7.19,7.85,-3.49,11.2
2.2154181003570557,7.6,7.55,-4.22,11.51
2.223017930984497,8.24,7.02,-5.18,12.0
2.2331058979034424,9.27,6.47,-5.68,12.65
2.2431600093841553,10.29,6.16,-5.45,13.17
2.253119945526123,10.39,6.47,-4.97,13.21
2.2630650997161865,9.2,7.08,-4.23,12.35
2.2728941440582275,10.17,7.52,-5.48,13.78
2.282938003540039,12.61,7.69,-19.89,24.77
2.31455397605896,14.85,0.47,-31.42,34.75
2.3164210319519043,12.36,-7.18,-11.82,18.54
2.317821979522705,-4.3,-10.66,26.18,28.59
2.322453022003174,-14.61,-10.11,20.34,27.0
2.3324520587921143,-7.6,-9.34,-9.87,15.56
2.34236216545105,4.73,-8.09,-8.93,12.94
2.3524081707000732,14.74,-6.55,7.74,17.89
2.3623909950256348,8.47,-0.82,7.16,11.12
2.3720529079437256,-1.58,4.55,-5.76,7.5
2.38230299949646,-5.99,6.93,-9.33,13.07
2.412446975708008,-6.14,7.13,-2.23,9.67
2.414189100265503,-1.13,3.41,4.98,6.14
2.415534019470215,3.47,-0.59,2.12,4.1
2.4215471744537354,5.14,-3.1,-3.63,7.01
2.432018995285034,4.11,-4.45,-3.17,6.83
2.441912889480591,1.87,-4.34,-0.23,4.73
2.4516050815582275,0.86,-3.55,-0.55,3.69
2.4615180492401123,0.99,-2.27,-1.61,2.95
2.4713029861450195,0.85,-0.61,-0.93,1.39
2.4814441204071045,0.43,0.62,-0.35,0.83
2.5117528438568115,0.18,1.27,-0.52,1.38
2.513546943664551,0.24,1.43,-1.04,1.78
2.5148770809173584,0.67,1.16,-1.03,1.68
2.521324872970581,0.71,0.43,-0.29,0.87
2.531109094619751,0.56,-0.42,0.24,0.74
2.5412261486053467,0.63,-1.37,0.5,1.58
2.5507938861846924,0.62,-1.79,0.45,1.94
2.560755968093872,0.67,-1.4,0.47,1.62
2.5708069801330566,0.43,-0.75,0.64,1.07
2.5807249546051025,0.03,-0.13,0.72,0.73
2.6111018657684326,-0.31,0.36,0.46,0.66
2.6128170490264893,-0.33,0.54,0.28,0.69
2.614076852798462,-0.69,0.38,0.37,0.87
2.6200830936431885,-1.47,0.46,0.44,1.6
2.630378007888794,-1.97,0.62,0.4,2.1
2.6401419639587402,-2.33,0.65,0.35,2.44
2.650164842605591,-2.26,0.68,0.06,2.36
2.6599180698394775,-1.81,0.59,-0.08,1.9
2.669996976852417,-1.42,0.42,-0.25,1.5
2.6797900199890137,-1.5,0.0,0.15,1.5
2.7165889739990234,-1.68,-0.07,0.39,1.72
2.7183358669281006,-1.57,0.21,-0.06,1.58
2.7196810245513916,-1.45,0.53,-0.05,1.54
2.7223780155181885,-1.16,0.44,0.27,1.26
2.7296111583709717,-0.86,0.15,0.11,0.87
2.7411048412323,-0.89,-0.4,-0.34,1.03
2.7491838932037354,-0.93,-1.04,0.09,1.39
2.759361982345581,-0.52,-1.48,0.05,1.56
2.769382953643799,-0.04,-1.72,-0.05,1.72
2.779136896133423,0.1,-1.93,0.55,2.0
2.8147151470184326,0.41,-1.98,0.26,2.03
2.816434144973755,0.73,-1.96,-0.41,2.13
2.8176028728485107,0.81,-1.84,0.05,2.01
2.8204901218414307,0.38,-2.13,0.54,2.23
2.8286020755767822,-0.27,-2.75,0.41,2.79
2.8385939598083496,-0.84,-3.69,0.9,3.88
2.848698854446411,-1.03,-4.79,2.05,5.31
2.8586270809173584,-1.48,-5.85,2.19,6.41
2.8685390949249268,-2.65,-6.8,2.12,7.59
2.878598928451538,-3.85,-6.99,2.22,8.28
2.9144890308380127,-4.37,-7.12,1.49,8.48
2.9160101413726807,-4.06,-7.05,1.14,8.21
2.9180779457092285,-4.16,-5.86,0.86,7.23
2.920599937438965,-5.65,-3.43,0.32,6.61
2.92791485786438,-8.3,-1.94,-0.7,8.55
2.9378550052642822,-11.2,-2.72,-1.83,11.66
2.948014974594116,-11.85,-4.8,-3.82,13.34
2.9579410552978516,-8.6,-6.35,-3.34,11.19
2.9681389331817627,-3.23,-7.02,-1.56,7.88
2.978173017501831,-0.11,-7.67,-3.05,8.25
3.013823986053467,0.42,-8.17,-3.74,8.99
3.015207052230835,-0.17,-8.25,-1.7,8.42
3.017369031906128,-0.83,-7.39,-0.54,7.45
3.019735097885132,-1.0,-6.4,-0.54,6.5
3.0272419452667236,-0.43,-5.95,-1.11,6.06
3.0371339321136475,0.2,-5.53,-1.57,5.75
3.0471229553222656,0.59,-5.63,-1.46,5.84
3.0569798946380615,0.77,-5.8,-0.44,5.86
3.0671679973602295,0.29,-5.64,0.83,5.7
3.0769219398498535,-1.54,-4.55,1.48,5.02
3.087108850479126,-4.12,-2.94,1.61,5.31
3.120811939239502,-6.05,-1.37,2.18,6.57
3.1223151683807373,-7.02,0.01,3.38,7.79
3.1245200634002686,-7.18,1.17,4.45,8.52
3.1271519660949707,-6.68,2.55,4.93,8.68
3.1362831592559814,-5.93,4.33,4.72,8.72
3.1466310024261475,-5.44,5.87,4.28,9.07
3.1563608646392822,-5.38,6.95,4.14,9.71
3.1665141582489014,-5.5,7.39,4.33,10.17
3.176203966140747,-5.59,7.3,4.73,10.33
3.1863820552825928,-5.39,6.81,5.15,10.09
3.219041109085083,-4.81,6.38,5.21,9.53
3.220582962036133,-3.94,6.52,4.88,9.04
3.222625970840454,-2.94,7.09,4.42,8.85
3.2258598804473877,-2.11,7.7,3.97,8.91
3.2427618503570557,-1.65,7.99,3.57,8.9
3.245640993118286,-1.11,8.0,3.08,8.64
3.2555649280548096,-0.27,7.83,2.26,8.15
3.2656891345977783,0.77,7.69,1.14,7.81
3.275770902633667,2.07,7.42,-0.18,7.7
3.285620927810669,3.55,6.68,-1.27,7.67
3.3182451725006104,4.93,6.15,-1.66,8.05
3.3198611736297607,6.42,5.75,-2.02,8.85
3.3210880756378174,7.99,5.33,-2.45,9.91
3.3256418704986572,9.39,4.93,-3.2,11.07
3.341377019882202,10.24,4.27,-4.18,11.85
3.344805955886841,9.95,3.59,-4.71,11.57
3.354773998260498,8.57,3.27,-4.59,10.25
3.364936113357544,7.35,3.04,-4.48,9.12
3.374907970428467,6.71,2.91,-4.59,8.63
3.385162115097046,6.45,3.04,-4.39,8.37
3.416563034057617,6.94,3.06,-4.25,8.69
3.4181711673736572,7.95,2.73,-8.07,11.65
3.4192960262298584,7.76,1.57,-14.79,16.77
3.424867868423462,5.17,-1.43,-14.69,15.63
3.434340000152588,0.4,-5.09,0.91,5.18
3.4441609382629395,-5.12,-8.29,16.49,19.15
3.4541759490966797,-4.78,-7.56,7.54,11.69
3.464164972305298,0.7,-5.19,-4.58,6.95
3.4740140438079834,4.85,-3.61,-4.73,7.67
3.484097957611084,6.42,-2.64,0.15,6.94
3.5216269493103027,2.91,-0.14,1.08,3.1
3.5231821537017822,-1.31,2.46,-2.32,3.62
3.524350881576538,-2.71,4.41,-3.39,6.18
3.527374029159546,-1.11,4.93,-0.17,5.05
3.53342604637146,2.19,3.08,1.99,4.27
3.54374098777771,4.15,0.0,0.73,4.21
3.5536069869995117,4.16,-2.77,-0.39,5.01
3.563652992248535,2.67,-4.42,-0.21,5.16
3.5733301639556885,1.32,-4.59,0.05,4.77
3.5833849906921387,0.72,-3.36,-0.12,3.43
3.6198480129241943,0.63,-1.52,-0.45,1.7
3.6214139461517334,0.68,0.11,-0.59,0.9
3.6226141452789307,0.7,0.96,-0.64,1.34
3.6244750022888184,0.56,1.22,-0.72,1.52
3.632650136947632,0.33,1.03,-0.7,1.28
3.6430130004882812,0.19,0.69,-0.67,0.98
3.6529250144958496,0.34,0.43,-0.57,0.79
3.662919044494629,0.64,0.3,-0.55,0.89
3.67256498336792,0.52,0.05,-0.12,0.53
3.6826698780059814,0.11,-0.35,0.21,0.42
3.720072031021118,0.03,-0.66,-0.02,0.66
3.7215869426727295,0.13,-0.75,-0.05,0.76
3.7228050231933594,0.3,-0.4,0.28,0.57
3.725698947906494,0.35,0.16,0.49,0.62
3.73223614692688,0.13,0.53,0.36,0.65
3.742119073867798,-0.24,0.82,0.17,0.87
3.7521121501922607,-0.55,0.94,-0.19,1.1
3.7620489597320557,-0.71,0.81,-0.57,1.21
3.7718310356140137,-0.73,0.49,-0.67,1.1
3.78193998336792,-0.49,0.25,-0.4,0.68
3.819582939147949,-0.22,0.4,-0.13,0.47
3.8210971355438232,-0.32,0.24,0.06,0.4
3.822295904159546,-0.89,0.47,-0.18,1.02
3.8236989974975586,-1.04,0.41,-0.41,1.19
3.8314101696014404,-1.1,0.07,-0.25,1.13
3.841495990753174,-1.38,-0.16,-0.01,1.38
3.851763963699341,-1.42,-0.19,0.3,1.46
3.8613359928131104,-1.2,-0.01,0.39,1.26
3.871119976043701,-1.09,0.23,0.41,1.18
3.8812968730926514,-1.17,0.48,0.03,1.26
3.8910348415374756,-1.31,0.38,-0.43,1.43
3.9240219593048096,-1.22,0.03,-0.43,1.29
3.925265073776245,-1.14,-0.3,-0.06,1.18
3.926396131515503,-1.14,-0.49,0.24,1.26
3.9304721355438232,-1.15,-0.52,0.35,1.3
3.9405691623687744,-1.03,-0.28,0.18,1.08
3.9506218433380127,-0.98,-0.1,0.16,0.99
3.9606049060821533,-0.88,-0.02,0.24,0.91
3.97082781791687,-0.61,0.0,0.2,0.64
3.980543851852417,-0.3,-0.09,0.31,0.44
3.9902520179748535,-0.21,-0.29,0.37,0.51
4.023164987564087,-0.4,-0.49,0.24,0.67
4.02450704574585,-0.7,-0.7,-0.04,0.99
4.0256969928741455,-0.78,-0.91,-0.27,1.22
4.03033709526062,-0.47,-1.11,-0.68,1.38
4.0400309562683105,-0.05,-1.32,-0.9,1.59
4.050076961517334,0.29,-1.82,-0.48,1.9
4.060011148452759,0.45,-2.79,0.07,2.82
4.069927930831909,0.32,-3.8,0.63,3.86
4.079771041870117,0.06,-4.72,1.03,4.83
4.089601039886475,-0.65,-5.55,1.18,5.71
4.122997045516968,-1.93,-6.08,1.31,6.51
4.12456488609314,-2.87,-6.17,1.53,6.97
4.125653982162476,-3.17,-6.27,2.6,7.49
4.129094839096069,-3.25,-6.28,3.5,7.88
4.13908314704895,-3.29,-6.91,2.99,8.21
4.14924693107605,-3.41,-7.74,2.54,8.83
4.159189939498901,-3.55,-7.42,2.18,8.5
4.169098138809204,-3.84,-4.58,1.61,6.18
4.1792309284210205,-4.06,-1.22,-0.63,4.28
4.1888768672943115,-5.18,0.23,-2.92,5.95
4.222144842147827,-7.33,-0.72,-2.82,7.88
4.223505020141602,-8.04,-3.88,-2.34,9.22
4.225687026977539,-5.37,-7.48,-1.6,9.34
4.228380918502808,-1.45,-8.1,-0.07,8.22
4.238434076309204,-0.7,-6.71,-0.4,6.75
4.248628854751587,-1.88,-6.04,-2.04,6.64
4.258581876754761,-2.53,-6.35,-1.76,7.05
4.268512964248657,-2.03,-6.76,-0.53,7.07
4.278175115585327,-0.88,-7.02,-0.49,7.09
4.288097143173218,-0.22,-6.58,-1.37,6.72
4.328337907791138,0.19,-5.81,-1.81,6.08
4.329709053039551,0.45,-5.41,-1.81,5.72
4.331714868545532,0.2,-5.18,-1.43,5.37
4.333961009979248,-0.58,-5.08,-0.62,5.15
4.337579011917114,-1.9,-4.69,0.31,5.06
4.347832918167114,-3.6,-3.75,0.78,5.25
4.357609033584595,-4.99,-2.28,1.27,5.63
4.367499113082886,-5.54,-0.93,1.96,5.94
4.3778769969940186,-5.89,0.23,2.46,6.38
4.387567043304443,-6.06,1.23,2.81,6.79
4.426733016967773,-6.19,2.48,3.02,7.32
4.428060054779053,-6.28,3.74,3.14,7.95
4.43013596534729,-6.23,4.72,3.29,8.48
4.432771921157837,-6.06,5.32,3.27,8.7
4.436844110488892,-5.75,5.62,3.13,8.62
4.447245836257935,-5.41,5.76,3.1,8.48
4.456899881362915,-5.2,5.98,2.99,8.46
4.466962099075317,-4.97,6.16,2.83,8.4
4.4767420291900635,-4.58,6.22,2.93,8.26
4.4868340492248535,-3.97,6.29,3.21,8.1
4.527021169662476,-3.37,6.4,3.14,7.88
4.528589963912964,-2.96,6.65,2.81,7.8
4.529720067977905,-2.9,6.96,2.77,8.03
4.532569169998169,-2.67,7.08,2.8,8.06
4.536118030548096,-1.46,7.25,2.3,7.74
4.546370029449463,0.77,7.22,0.65,7.28
4.5563249588012695,2.65,7.03,-0.89,7.56
4.5666749477386475,3.31,6.74,-0.69,7.54
4.576143980026245,3.65,6.18,0.15,7.17
4.586138963699341,4.8,5.69,0.18,7.44
4.625946998596191,6.46,5.11,-0.43,8.24
4.627525091171265,7.95,4.18,-1.18,9.05
4.628648042678833,8.92,3.04,-1.54,9.54
4.642502069473267,9.14,2.24,-1.27,9.49
4.644062042236328,9.02,1.9,-1.64,9.36
4.646554946899414,8.56,1.89,-2.46,9.1
4.655434846878052,7.69,2.03,-2.99,8.49
4.665795087814331,6.79,2.3,-3.11,7.81
4.675288915634155,6.09,2.55,-2.85,7.19
4.6854088306427,5.67,2.94,-2.41,6.82
4.6954028606414795,5.65,3.33,-2.45,7.0
4.731619119644165,5.81,4.0,-2.87,7.61
4.732975959777832,7.27,4.37,-5.41,10.06
4.735061883926392,7.12,2.08,-13.49,15.39
4.737769842147827,2.92,-4.0,-13.97,14.82
4.7449891567230225,1.02,-18.56,0.87,18.6
4.755357027053833,1.85,-27.26,20.34,34.06
4.764652967453003,-0.62,-14.08,14.24,20.03
4.77462100982666,-1.92,-1.32,-6.76,7.15
4.784759044647217,-2.24,4.16,-13.71,14.5
4.794520139694214,-0.19,7.11,-8.22,10.86
4.829928159713745,2.12,7.54,1.05,7.9
4.831295967102051,2.1,6.24,4.54,7.99
4.832468032836914,0.55,4.24,1.39,4.49
4.8354339599609375,1.13,2.79,-1.11,3.2
4.844050168991089,2.39,1.17,-0.9,2.8
4.854267835617065,3.57,-1.46,0.36,3.87
4.864196062088013,3.91,-3.98,0.91,5.65
4.873989820480347,3.19,-5.66,0.71,6.53
4.884053945541382,2.29,-5.39,0.47,5.87
4.894032955169678,2.0,-3.14,0.51,3.75
4.93025803565979,1.95,-0.5,0.17,2.02
4.931591987609863,1.51,1.14,-0.07,1.89
4.932764053344727,0.85,1.92,0.06,2.1
4.935708045959473,-0.04,2.1,-0.01,2.1
4.943598031997681,-0.73,1.74,-0.24,1.9
4.953402996063232,-0.92,0.94,-0.35,1.36
4.9636008739471436,-0.65,-0.11,-0.26,0.7
4.973170042037964,-0.11,-1.08,-0.13,1.09
4.983173131942749,0.43,-1.6,-0.07,1.65
4.99310302734375,0.67,-1.34,-0.11,1.5
5.0292439460754395,0.59,-0.74,-0.24,0.97
5.030596971511841,0.53,-0.07,-0.41,0.67
5.031733989715576,0.41,0.46,-0.54,0.81
5.034557104110718,0.23,0.62,-0.47,0.81
5.042520046234131,0.08,0.5,-0.06,0.5
5.052767038345337,-0.08,0.31,0.14,0.34
5.062802076339722,-0.15,-0.1,0.06,0.19
5.072442054748535,-0.24,-0.32,0.09,0.41
5.082534074783325,-0.31,-0.28,0.17,0.45
5.092586994171143,-0.81,0.09,-0.02,0.81
5.134963035583496,-0.63,0.29,-0.21,0.72
5.136306047439575,-0.15,0.2,0.03,0.25
5.137502908706665,0.4,0.03,0.15,0.42
5.140432119369507,0.68,0.37,0.31,0.83
5.142343044281006,0.15,0.31,0.38,0.51
5.159379959106445,-0.53,0.14,0.28,0.61
5.161643028259277,-1.25,0.07,0.14,1.25
5.171790838241577,-1.71,0.34,0.16,1.75
5.182085037231445,-2.15,0.18,-0.06,2.15
5.191620111465454,-1.78,-0.2,0.14,1.79
5.234501123428345,-0.84,-0.05,0.59,1.02
5.235852956771851,0.08,0.08,0.2,0.22
5.2370240688323975,0.69,-0.11,0.25,0.74
5.239967107772827,0.7,-0.03,0.47,0.84
5.241092920303345,0.11,0.07,0.43,0.44
5.2595789432525635,-0.64,0.13,0.08,0.65
5.260998964309692,-0.92,0.26,-0.2,0.97
5.271197080612183,-0.98,0.36,-0.32,1.09
5.281006097793579,-0.88,0.25,-0.55,1.06
5.2909040451049805,-0.85,-0.15,-0.54,1.01
5.333359956741333,-0.97,-0.53,-0.13,1.11
5.33470606803894,-1.14,-0.7,0.37,1.38
5.335861921310425,-1.01,-0.67,0.13,1.21
5.338727951049805,-0.82,-0.51,-0.11,0.97
5.340476036071777,-0.87,-0.43,-0.07,0.97
5.350509881973267,-1.11,-0.5,-0.09,1.22
5.360438108444214,-1.53,-0.87,0.14,1.76
5.370409965515137,-1.94,-1.44,0.6,2.48
5.380439043045044,-2.54,-2.06,1.02,3.42
5.390254974365234,-3.23,-2.5,1.06,4.21
5.4336631298065186,-3.82,-2.99,1.13,4.98
5.435012102127075,-4.34,-3.69,1.44,5.87
5.436171054840088,-5.08,-4.98,1.32,7.23
5.439007997512817,-6.04,-7.25,0.95,9.48
5.44009804725647,-6.67,-9.77,1.33,11.9
5.4495689868927,-6.38,-10.75,2.42,12.73
5.459666967391968,-5.59,-9.87,3.47,11.86
5.469744920730591,-5.61,-8.2,3.74,10.61
5.480270147323608,-5.93,-7.18,2.65,9.68
5.489414930343628,-4.72,-7.32,-0.27,8.71
5.499510049819946,-2.4,-7.76,-2.74,8.57
5.537302017211914,-1.27,-7.63,-3.74,8.59
5.538924932479858,-2.16,-6.06,-2.8,7.01
5.540097951889038,-3.76,-3.74,-2.13,5.71
5.541731119155884,-4.31,-2.24,-2.65,5.53
5.5488669872283936,-4.0,-1.97,-2.59,5.15
5.559190988540649,-3.46,-2.73,-1.11,4.54
5.569012880325317,-2.23,-4.22,-0.51,4.8
5.578794956207275,-0.55,-5.63,-0.93,5.73
5.588670969009399,0.47,-5.93,0.72,5.99
5.598971128463745,-0.11,-4.99,3.97,6.37
5.637060880661011,-1.72,-3.54,5.99,7.16
5.638717889785767,-1.46,-2.29,6.02,6.6
5.639902830123901,-0.11,-1.09,5.15,5.26
5.6413209438323975,0.87,0.02,4.6,4.68
5.6481969356536865,0.9,0.83,5.05,5.19
5.658118009567261,0.01,1.2,5.75,5.87
5.668309926986694,-1.3,1.25,6.04,6.3
5.677978038787842,-2.21,1.19,6.35,6.82
5.688101053237915,-2.39,1.1,6.67,7.17
5.6983959674835205,-2.17,1.16,6.53,6.97
5.737023115158081,-1.83,1.13,6.09,6.45
5.738568067550659,-1.58,1.27,5.8,6.14
5.73975682258606,-1.19,1.74,5.73,6.1
5.7409069538116455,-0.4,2.42,5.62,6.13
5.747611999511719,0.54,3.18,5.18,6.1
5.757475137710571,1.23,3.69,4.45,5.91
5.767627954483032,1.69,3.81,4.02,5.79
5.7774741649627686,2.0,3.64,3.96,5.73
5.787426948547363,2.17,3.5,3.98,5.72
5.79747200012207,2.3,3.52,3.46,5.44
5.836788892745972,2.57,3.68,2.27,5.02
5.8383870124816895,2.36,3.79,1.73,4.78
5.839532136917114,1.96,3.72,2.49,4.88
5.840683937072754,2.17,3.59,2.98,5.14
5.860419034957886,2.86,3.53,2.66,5.26
5.8616368770599365,3.61,3.48,1.99,5.39
5.8666298389434814,4.18,3.23,1.48,5.48
5.876605033874512,4.39,2.86,1.39,5.42
5.886937856674194,4.24,2.51,1.47,5.14
5.897075891494751,4.06,2.32,1.4,4.88
5.941136121749878,4.41,2.08,1.09,4.99
5.94242787361145,5.16,1.74,0.82,5.5
5.944489002227783,6.0,1.28,1.07,6.22
5.946759939193726,6.59,0.88,1.0,6.72
5.949270009994507,6.84,0.66,0.71,6.9
5.955943822860718,7.07,0.79,-0.06,7.11
5.966314077377319,7.38,1.07,-1.01,7.52
5.9769041538238525,7.37,1.35,-1.33,7.6
5.986026048660278,7.1,1.6,-1.05,7.35
5.996075868606567,6.81,1.9,-0.15,7.07
6.040619134902954,6.85,2.39,0.57,7.27
6.041964054107666,7.1,3.24,1.61,7.96
6.043118000030518,6.95,2.74,-1.95,7.72
6.045047044754028,3.47,-0.82,-15.53,15.93
6.047598123550415,-2.53,-9.34,-22.44,24.43
6.056221008300781,-9.68,-18.85,-10.85,23.8
6.065191030502319,-14.25,-14.69,20.42,28.91
6.075669050216675,-6.22,-4.08,22.34,23.54
6.085572004318237,1.61,0.2,0.91,1.86
6.095098972320557,5.43,5.16,-6.6,9.98
6.139163017272949,8.07,7.87,-2.35,11.51
6.1405041217803955,7.4,6.86,-0.69,10.11
6.1416380405426025,4.15,5.27,-3.49,7.56
6.144593954086304,1.68,3.9,-4.45,6.15
6.1470959186553955,2.0,2.21,-0.27,2.99
6.154682874679565,3.6,-0.36,1.53,3.92
6.165009021759033,3.64,-3.21,-0.67,4.89
6.17446494102478,2.13,-5.39,-2.7,6.39
6.1845738887786865,0.71,-6.53,-2.18,6.92
6.1945250034332275,0.33,-5.01,-0.7,5.06
6.240620851516724,0.21,-2.18,-0.61,2.27
6.24201512336731,0.08,0.04,-1.23,1.23
6.243233919143677,-0.05,1.61,-1.46,2.17
6.246086835861206,-0.19,2.59,-1.16,2.84
6.248366117477417,-0.64,2.88,-0.78,3.05
6.253710985183716,-0.87,2.21,-0.99,2.57
6.264055013656616,-0.64,0.92,-1.28,1.7
6.273821115493774,0.05,-0.54,-0.97,1.11
6.283849000930786,1.17,-1.5,-0.32,1.92
6.293544054031372,1.96,-1.81,0.14,2.67
6.303820848464966,2.27,-1.67,0.18,2.82
6.3451831340789795,1.99,-1.4,0.42,2.46
6.34670615196228,1.31,-0.82,0.39,1.59
6.34787917137146,0.72,-0.05,-0.12,0.73
6.36107611656189,0.3,0.53,-0.32,0.68
6.362306833267212,-0.2,1.02,-0.05,1.04
6.364865064620972,-0.51,1.11,-0.06,1.22
6.372921943664551,-0.66,0.59,-0.36,0.95
6.3832008838653564,-0.78,0.0,-0.7,1.04
6.392926931381226,-0.77,-0.29,-0.85,1.18
6.403012990951538,-0.73,-0.67,-1.08,1.46
6.444178819656372,-0.64,-0.4,-0.25,0.79
6.4456799030303955,-0.21,0.26,0.19,0.38
6.446784019470215,-0.24,0.79,-0.01,0.82
6.4496009349823,-0.34,1.16,-0.32,1.25
6.452375173568726,-0.45,1.29,-0.52,1.46
6.4630959033966064,-0.9,1.08,-0.26,1.42
6.472296953201294,-1.31,0.64,-0.02,1.45
6.482445955276489,-1.31,0.1,0.25,1.33
6.492095947265625,-1.21,-0.09,0.4,1.27
6.502308130264282,-0.96,0.05,-0.05,0.96
6.54434609413147,-0.8,0.3,-0.45,0.96
6.545828104019165,-0.95,0.29,0.32,1.04
6.546993970870972,-0.87,0.08,1.01,1.33
6.549515962600708,-0.58,-0.14,1.22,1.35
6.552065134048462,-0.7,-0.21,0.93,1.18
6.5619518756866455,-1.39,-0.4,0.29,1.47
6.571784973144531,-2.04,-0.87,0.19,2.22
6.581756830215454,-2.15,-1.26,0.4,2.52
6.5914390087127686,-1.75,-1.29,0.31,2.19
6.601672887802124,-1.32,-0.98,0.03,1.64
6.642987012863159,-1.34,-0.54,0.12,1.44
6.644462823867798,-1.53,-0.31,0.03,1.56
6.645612955093384,-1.32,-0.52,-0.56,1.52
6.648516893386841,-0.47,-0.91,-1.48,1.79
6.650907039642334,0.61,-1.47,-1.3,2.05
6.661091089248657,1.58,-1.94,-1.36,2.84
6.671519041061401,1.97,-2.61,-0.91,3.39
6.681113958358765,1.29,-3.24,-0.05,3.48
6.690999984741211,-0.46,-4.07,0.9,4.19
6.7011559009552,-1.86,-4.87,1.26,5.36
6.7487828731536865,-3.03,-5.28,0.67,6.12
6.750366926193237,-4.4,-5.55,1.02,7.15
6.751516103744507,-5.25,-5.6,2.14,7.96
6.754401922225952,-5.43,-5.62,2.7,8.26
6.757459878921509,-5.78,-6.55,2.98,9.22
6.760163068771362,-6.04,-8.84,2.64,11.02
6.777137994766235,-5.43,-10.0,2.51,11.65
6.780021905899048,-5.44,-7.19,2.3,9.3
6.7900450229644775,-6.97,-1.99,-0.77,7.28
6.800090074539185,-8.45,1.07,-4.29,9.53
6.847223997116089,-9.8,-0.12,-4.71,10.87
6.848735094070435,-10.07,-4.33,-3.22,11.42
6.849931001663208,-7.85,-7.9,-1.21,11.2
6.852730989456177,-4.31,-8.22,-1.67,9.43
6.855263948440552,-0.73,-7.33,-3.44,8.12
6.859908819198608,1.71,-7.92,-4.17,9.11
6.869527101516724,2.18,-8.19,-2.83,8.93
6.879491090774536,1.5,-7.32,0.44,7.48
6.889389991760254,0.68,-6.37,1.04,6.49
6.899367094039917,0.65,-5.78,-0.92,5.88
6.947299957275391,1.32,-5.3,-2.43,5.97
6.948822021484375,1.89,-5.16,-2.1,5.88
6.950026988983154,2.0,-5.13,-0.06,5.5
6.9528069496154785,0.97,-4.85,1.34,5.12
6.955352067947388,-1.39,-4.04,1.98,4.7
6.9586498737335205,-4.12,-2.88,2.62,5.66
6.968925952911377,-5.93,-1.64,3.51,7.08
6.978563070297241,-7.02,0.0,4.38,8.27
6.988876104354858,-7.45,2.07,5.26,9.35
6.998672962188721,-7.28,4.41,5.46,10.11
7.047084093093872,-6.86,6.58,4.9,10.69
7.048614025115967,-6.48,8.19,4.4,11.33
7.049800157546997,-6.34,8.91,4.04,11.65
7.052742004394531,-6.06,8.47,3.82,11.09
7.055315971374512,-5.49,7.33,3.93,9.96
7.057926893234253,-4.95,6.19,4.04,8.89
7.068218946456909,-4.62,5.73,4.12,8.43
7.077880144119263,-3.98,5.88,4.11,8.2
7.088085889816284,-2.95,6.42,4.14,8.18
7.097977876663208,-1.79,7.14,3.76,8.26
7.107828855514526,-0.75,7.76,2.75,8.26
7.152828931808472,-0.04,8.33,1.46,8.45
7.154155015945435,0.21,8.64,0.77,8.67
7.155347108840942,0.42,8.38,1.03,8.45
7.158372163772583,1.17,7.69,1.12,7.85
7.159496068954468,2.73,6.96,0.6,7.5
7.177464962005615,4.75,6.81,-0.49,8.31
7.178693056106567,6.84,7.24,-2.29,10.21
7.187031984329224,8.52,7.13,-4.42,11.95
7.197245836257935,9.31,6.38,-5.99,12.77
7.2070159912109375,9.12,5.29,-5.96,12.11
7.251700162887573,9.25,4.13,-4.83,11.22
7.25305700302124,9.98,3.13,-4.09,11.23
7.255255937576294,10.29,2.69,-3.96,11.34
7.257792949676514,10.09,2.89,-3.45,11.04
7.258893013000488,11.57,3.49,-7.65,14.3
7.277125120162964,13.65,3.14,-17.45,22.37
7.278376817703247,16.99,-4.62,-16.01,23.79
7.286322832107544,13.16,-13.1,13.16,22.75
7.296381950378418,-5.37,-12.64,29.55,32.58
7.306276082992554,-13.72,-6.68,0.7,15.27
7.352643966674805,-12.4,-1.91,-19.07,22.82
7.353989839553833,-4.28,0.21,-13.2,13.87
7.356135129928589,4.95,-0.35,4.03,6.39
7.358535051345825,7.87,-0.54,10.31,12.98
7.359640836715698,3.14,1.63,-0.1,3.53
7.377086877822876,0.37,3.04,-4.52,5.45
7.378278017044067,1.23,3.26,1.13,3.66
7.385574102401733,3.36,2.0,2.68,4.74
7.395810842514038,4.18,0.92,-1.39,4.5
7.405694961547852,3.08,0.12,-2.9,4.23
7.45217490196228,1.6,-0.92,-0.42,1.89
7.453485012054443,1.0,-2.24,0.58,2.52
7.455612897872925,1.01,-3.13,-1.02,3.44
7.458081007003784,1.26,-2.62,-1.71,3.37
7.459172964096069,0.99,-1.23,-0.88,1.8
7.476765871047974,0.34,-0.2,-0.2,0.44
7.478209018707275,-0.43,0.49,-0.32,0.72
7.484886884689331,-0.35,1.12,-0.86,1.45
7.494939088821411,-0.09,1.3,-0.51,1.39
7.504989862442017,0.19,0.88,-0.15,0.91
7.557495832443237,0.62,0.15,-0.5,0.81
7.558812856674194,0.96,-0.72,-0.18,1.21
7.560894012451172,1.13,-1.11,0.14,1.59
7.563369989395142,1.04,-0.92,0.34,1.42
7.565843820571899,1.04,-0.57,0.14,1.19
7.568075895309448,0.82,-0.3,0.01,0.87
7.574244976043701,0.62,-0.12,0.04,0.63
7.584460020065308,0.43,0.23,0.13,0.5
7.5944788455963135,0.37,0.54,0.04,0.65
7.604327917098999,0.37,0.61,0.11,0.72
7.655922174453735,0.04,0.5,0.49,0.7
7.657459020614624,-0.41,0.23,0.2,0.51
7.658599138259888,-0.96,-0.03,-0.48,1.07
7.66140604019165,-1.71,-0.19,-0.69,1.85
7.663947820663452,-2.18,-0.11,-0.46,2.23
7.66646409034729,-1.93,0.04,-0.23,1.94
7.673536062240601,-1.27,0.19,0.15,1.29
7.683828115463257,-0.46,0.08,0.68,0.82
7.69344687461853,-0.46,0.06,0.85,0.96
7.703561067581177,-1.47,0.18,0.01,1.48
7.756976842880249,-2.11,-0.04,-0.79,2.25
7.758555173873901,-2.08,-0.27,-0.58,2.17
7.759649038314819,-1.44,-0.31,-0.18,1.48
7.762521028518677,-0.53,-0.43,-0.2,0.71
7.7648961544036865,-0.21,-0.36,-0.04,0.41
7.767253160476685,-0.28,-0.48,0.39,0.67
7.77301812171936,-0.48,-0.8,0.69,1.16
7.7830650806427,-0.56,-0.87,0.2,1.05
7.7928478717803955,-0.49,-0.8,-0.35,1.0
7.802837133407593,-0.52,-0.95,-0.17,1.09
7.855902910232544,-0.58,-1.37,-0.2,1.5
7.857433080673218,-0.74,-1.8,0.05,1.94
7.858574151992798,-0.92,-2.2,0.18,2.39
7.861578941345215,-0.99,-2.72,0.25,2.9
7.8640758991241455,-1.11,-3.32,0.56,3.54
7.866567850112915,-1.21,-3.69,1.31,4.09
7.872087001800537,-1.45,-3.96,0.89,4.31
7.882236003875732,-2.17,-4.53,0.56,5.05
7.89207911491394,-2.84,-5.15,1.14,5.99
7.902240037918091,-3.16,-5.55,1.97,6.68
7.911908864974976,-3.16,-5.83,2.43,7.06
7.9604339599609375,-3.32,-6.22,2.21,7.38
7.9617760181427,-3.59,-7.19,1.17,8.12
7.962888956069946,-3.79,-9.13,0.27,9.88
7.965692043304443,-3.02,-9.93,-1.06,10.43
7.968189001083374,-2.77,-5.75,-1.88,6.65
7.971323013305664,-5.15,0.66,-1.28,5.34
7.981623888015747,-6.7,3.4,-2.79,8.01
7.991286039352417,-6.27,0.89,-4.74,7.91
8.001537084579468,-4.68,-5.36,-3.69,8.01
8.011405944824219,-2.23,-10.28,-0.99,10.56
8.06001901626587,-1.22,-9.69,-1.54,9.88
8.061437845230103,-2.23,-6.46,-0.99,6.9
8.062652826309204,-2.11,-4.81,0.76,5.3
8.065542936325073,-0.57,-5.03,-0.35,5.07
8.067800045013428,0.86,-5.83,-1.84,6.17
8.07076907157898,1.68,-6.07,-1.67,6.51
8.081181049346924,2.04,-5.65,-0.37,6.01
8.09072494506836,1.6,-5.28,0.89,5.58
8.100724935531616,0.34,-4.71,1.01,4.82
8.110429048538208,-0.89,-4.12,0.4,4.23
8.159844160079956,-2.15,-3.51,0.36,4.13
8.161197900772095,-3.41,-2.67,1.55,4.59
8.162379026412964,-4.54,-1.44,2.96,5.6
8.165269136428833,-5.32,-0.15,3.87,6.58
8.167463064193726,-5.73,1.11,3.92,7.03
8.169925928115845,-5.95,2.37,3.62,7.35
8.1805739402771,-6.09,3.69,3.52,7.94
8.189963102340698,-6.19,4.87,3.92,8.79
8.20008897781372,-6.1,5.61,4.3,9.33
8.20986008644104,-5.82,5.79,4.44,9.33
8.259896039962769,-5.27,5.77,4.26,8.9
8.261229991912842,-4.66,5.87,3.93,8.46
8.26241397857666,-4.12,6.09,3.57,8.17
8.26527714729309,-3.83,6.35,3.59,8.23
8.267786026000977,-3.56,6.64,4.0,8.53
8.270344018936157,-3.16,6.91,4.11,8.63
8.279236078262329,-2.66,7.0,3.56,8.29
8.289552927017212,-2.3,7.03,2.61,7.84
8.299455881118774,-1.98,6.94,1.86,7.45
8.309051036834717,-1.57,6.78,1.31,7.08
8.364833116531372,-1.05,6.64,1.01,6.79
8.366179943084717,-0.04,6.74,0.58,6.76
8.367276906967163,1.46,6.89,-0.1,7.04
8.370138883590698,3.35,6.91,-0.63,7.7
8.37266993522644,5.36,6.66,-1.26,8.64
8.37510895729065,7.12,6.14,-1.7,9.55
8.378536939620972,8.27,5.68,-2.34,10.3
8.394948959350586,8.79,5.22,-3.34,10.75
8.398371934890747,9.05,4.61,-4.4,11.06
8.408643007278442,9.15,3.97,-4.75,11.04
8.464823007583618,8.65,3.84,-4.31,10.39
8.466181993484497,7.72,4.06,-3.43,9.37
8.467360973358154,8.17,3.98,-4.39,10.09
8.470242023468018,10.25,3.78,-12.57,16.65
8.472792863845825,13.47,-0.27,-21.62,25.47
8.475012063980103,14.43,-7.38,-12.28,20.33
8.477719068527222,4.07,-10.87,23.76,26.44
8.494765043258667,-10.24,-8.19,25.72,28.86
8.49753999710083,-10.9,-3.87,-7.4,13.73
8.50766110420227,-6.22,-1.75,-18.16,19.27
8.563577890396118,3.94,-3.09,-5.76,7.63
8.564913034439087,12.1,-5.13,8.68,15.75
8.566105127334595,6.97,-0.83,5.98,9.22
8.568909883499146,-0.94,3.3,-4.74,5.85
8.571449041366577,-3.88,5.45,-4.7,8.17
8.573758840560913,-1.95,4.61,0.87,5.08
8.57752799987793,1.85,1.15,1.27,2.52
8.587249994277954,3.67,-0.79,-1.31,3.97
8.597234964370728,3.39,-1.75,-2.23,4.41
8.606874942779541,2.12,-2.53,-0.44,3.32
8.664620161056519,1.25,-2.84,0.42,3.13
8.66598391532898,0.95,-2.49,-1.04,2.86
8.66808795928955,0.72,-1.39,-1.65,2.27
8.670647859573364,0.52,-0.41,-0.76,1.0
8.673099040985107,0.06,0.24,0.02,0.24
8.675542116165161,-0.15,0.53,-0.37,0.66
8.67665696144104,0.15,0.55,-0.77,0.95
8.694926977157593,0.51,0.31,-0.27,0.65
8.696706056594849,0.9,0.05,0.27,0.94
8.706557035446167,1.05,-0.31,0.13,1.1
8.716262102127075,0.87,-0.52,-0.22,1.03
8.768666982650757,0.55,-0.87,0.04,1.03
8.77010703086853,0.48,-1.03,0.32,1.18
8.77129602432251,0.58,-0.69,0.07,0.9
8.77374815940857,0.81,-0.16,-0.14,0.83
8.774854898452759,1.0,0.39,-0.01,1.07
8.776930093765259,0.82,0.83,0.2,1.18
8.785778045654297,0.31,0.8,0.13,0.86
8.795647859573364,-0.13,0.39,-0.25,0.48
8.80564284324646,-0.27,-0.15,-0.17,0.35
8.815819025039673,-0.1,-0.39,0.24,0.46
8.868767976760864,0.13,-0.18,0.57,0.61
8.870105028152466,0.16,0.31,0.27,0.44
8.872179985046387,-0.11,0.69,-0.33,0.77
8.875741958618164,-0.72,0.57,-0.28,0.96
8.876875162124634,-1.52,0.38,-0.11,1.57
8.89438509941101,-1.91,0.13,-0.17,1.92
8.895704984664917,-1.36,-0.15,-0.42,1.43
8.89825987815857,-0.74,-0.24,-0.27,0.82
8.904642820358276,-0.71,-0.32,-0.01,0.77
8.914865016937256,-0.97,-0.25,0.17,1.01
8.968013048171997,-1.15,-0.22,0.08,1.17
8.969359159469604,-1.22,-0.08,0.14,1.23
8.97142481803894,-0.93,0.07,0.02,0.93
8.97396993637085,-0.5,0.07,-0.56,0.75
8.974973917007446,-0.38,-0.06,-0.62,0.72
8.977118968963623,-0.23,-0.2,-0.55,0.62
8.984241962432861,-0.08,-0.3,-0.19,0.36
8.994688034057617,0.05,-0.51,-0.11,0.52
9.00430417060852,0.28,-0.91,-0.29,0.99
9.014147996902466,0.37,-1.31,0.08,1.36
9.067739963531494,0.04,-1.77,0.4,1.81
9.069126844406128,-0.5,-2.22,0.67,2.37
9.070305109024048,-0.88,-2.38,0.65,2.61
9.073117017745972,-1.17,-2.46,0.61,2.79
9.075695991516113,-1.19,-3.1,0.62,3.37
9.076774835586548,-0.49,-4.07,1.16,4.26
9.09483790397644,0.33,-5.05,1.41,5.25
9.096315145492554,-0.24,-5.98,1.35,6.13
9.103256940841675,-1.88,-6.44,1.27,6.82
9.11326003074646,-3.42,-6.06,0.91,7.01
9.172457933425903,-4.37,-5.14,0.47,6.76
9.173820972442627,-5.26,-4.35,0.75,6.86
9.174973964691162,-5.14,-4.57,-0.08,6.87
9.177727937698364,-3.3,-5.29,-0.51,6.25
9.180246114730835,-2.74,-5.18,1.51,6.05
9.18274998664856,-4.79,-3.82,0.39,6.13
9.185266017913818,-7.08,-2.54,-2.29,7.86
9.192819833755493,-8.43,-2.41,-4.07,9.66
9.202852964401245,-7.55,-3.71,-2.41,8.75
9.212738037109375,-4.35,-5.01,-0.99,6.7
9.27248501777649,-2.09,-5.48,-2.64,6.43
9.273870944976807,-1.93,-5.87,-3.04,6.88
9.275059938430786,-2.48,-6.45,-0.3,6.91
9.27767300605774,-2.35,-6.64,1.7,7.24
9.280233144760132,-1.48,-6.38,1.49,6.71
9.282636880874634,-0.77,-5.74,0.85,5.85
9.285117864608765,-0.75,-5.05,0.7,5.15
9.29184103012085,-1.06,-4.56,0.67,4.72
9.3021080493927,-1.1,-4.2,0.36,4.35
9.31181788444519,-1.06,-3.92,0.26,4.06
9.372684001922607,-1.09,-3.67,0.46,3.85
9.374083995819092,-1.48,-3.35,0.83,3.75
9.375291109085083,-2.34,-2.73,1.46,3.88
9.377593994140625,-3.41,-1.72,2.04,4.32
9.380177974700928,-4.42,-0.34,2.52,5.09
9.382683038711548,-4.91,0.98,2.8,5.73
9.385202169418335,-4.94,2.12,2.74,6.03
9.391108989715576,-4.68,3.05,2.64,6.17
9.401379823684692,-4.24,3.68,2.6,6.18
9.412106037139893,-3.72,4.08,2.4,6.02
9.472431898117065,-3.3,4.56,2.27,6.06
9.47379994392395,-3.09,4.82,2.49,6.24
9.47498106956482,-2.62,4.71,2.18,5.81
9.477422952651978,-2.61,4.63,1.74,5.59
9.494891881942749,-2.83,4.98,1.55,5.93
9.496147871017456,-2.69,5.67,1.87,6.54
9.49893307685852,-2.15,6.32,1.88,6.93
9.501471042633057,-1.94,6.77,1.3,7.16
9.504091024398804,-1.56,6.86,1.01,7.1
9.510305166244507,-0.62,6.59,0.89,6.67
9.52045202255249,0.02,6.42,1.07,6.5
9.577295064926147,0.48,6.48,1.37,6.64
9.578850984573364,0.94,6.79,1.33,6.98
9.57996916770935,1.61,7.24,1.04,7.48
9.582887887954712,2.41,7.75,0.75,8.15
9.585376977920532,3.02,7.95,0.19,8.5
9.587828874588013,3.13,7.77,-0.68,8.4
9.590198040008545,3.14,7.2,-1.33,7.96
9.59970998764038,3.74,6.39,-1.91,7.64
9.609709024429321,4.86,5.82,-2.66,8.03
9.619771957397461,5.94,5.34,-2.66,8.41
9.676784992218018,6.85,4.59,-2.35,8.57
9.678323030471802,7.46,3.74,-2.42,8.68
9.679529905319214,7.58,3.0,-2.75,8.6
9.682402849197388,7.28,2.55,-3.21,8.35
9.684700965881348,6.66,2.43,-3.45,7.88
9.687196969985962,5.97,2.45,-3.01,7.12
9.689815998077393,6.11,2.2,-2.51,6.96
9.699268102645874,8.19,1.71,-6.74,10.74
9.708954095840454,10.34,0.7,-13.35,16.9
9.719227075576782,10.01,-3.17,-11.45,15.53
9.776432991027832,3.64,-6.25,6.33,9.61
9.777989149093628,-6.7,-6.59,18.5,20.75
9.779170036315918,-10.61,-4.16,5.97,12.86
9.781041860580444,-6.76,-2.4,-9.02,11.52
9.78355598449707,0.56,-2.25,-9.12,9.41
9.786052942276001,7.38,-3.71,-0.35,8.26
9.788595914840698,7.77,-2.95,4.05,9.24
9.798486948013306,1.8,0.31,0.3,1.85
9.80810809135437,-1.06,2.42,-2.68,3.76
9.81843113899231,-0.55,3.29,-0.39,3.35
9.877257108688354,1.39,2.61,0.58,3.01
9.878798007965088,2.25,1.31,-1.75,3.13
9.879923105239868,1.9,0.08,-2.45,3.1
9.882917165756226,1.29,-1.31,-0.49,1.9
9.885417938232422,0.97,-2.39,0.63,2.65
9.887705087661743,0.86,-2.58,-0.53,2.77
9.890117883682251,0.69,-1.73,-1.55,2.42
9.897598028182983,0.49,-0.69,-1.02,1.32
9.90784502029419,0.64,-0.08,-0.17,0.66
9.917740106582642,0.5,0.51,-0.09,0.71
9.981469869613647,0.41,0.84,-0.51,1.06
9.983070135116577,0.55,0.49,-0.48,0.87
9.984237909317017,0.79,-0.29,0.47,0.96
9.987198114395142,1.13,-0.77,0.6,1.49
9.989714860916138,1.47,-0.57,-0.29,1.6
9.992396116256714,1.42,-0.21,-0.45,1.5
9.99347996711731,1.02,0.0,0.18,1.03
10.011574029922485,0.58,0.11,0.27,0.64
10.013017892837524,0.3,0.06,-0.04,0.3
10.016752004623413,0.23,0.23,-0.39,0.5
10.081053972244263,0.23,0.44,-0.4,0.63
10.082507848739624,0.23,0.51,0.03,0.56
10.083513975143433,0.26,0.43,0.08,0.5
10.08644413948059,0.19,0.28,-0.39,0.51
10.088778018951416,-0.11,0.03,-0.7,0.7
10.091328859329224,-0.5,-0.26,-0.58,0.8
10.092458963394165,-0.64,-0.21,-0.55,0.86
10.096131086349487,-0.52,-0.05,-0.69,0.86
10.106261968612671,-0.44,-0.02,-0.28,0.52
10.116204977035522,-0.45,0.01,0.38,0.58
10.180495977401733,-0.43,-0.06,0.43,0.61
10.18205714225769,-0.51,0.06,0.46,0.68
10.183182001113892,-0.55,0.5,0.42,0.85
10.186036825180054,-0.49,0.93,-0.07,1.05
10.188549041748047,-0.73,1.08,-0.45,1.37
10.190901041030884,-1.05,0.78,-0.07,1.3
10.19197702407837,-1.13,0.13,0.45,1.22
10.195660829544067,-0.81,-0.27,0.22,0.88
10.205528020858765,-0.46,-0.1,0.0,0.47
10.215677976608276,-0.41,0.31,0.08,0.52
10.279731035232544,-0.59,0.41,0.02,0.71
10.281047105789185,-0.95,0.1,0.11,0.96
10.283102989196777,-1.27,-0.14,0.13,1.28
10.285758972167969,-1.09,-0.29,0.27,1.15
10.288244009017944,-0.63,-0.26,0.29,0.74
10.29077410697937,-0.24,-0.04,0.16,0.29
10.293169021606445,0.04,-0.12,-0.11,0.16
10.295056104660034,0.08,-0.41,0.09,0.42
10.31233811378479,-0.07,-0.48,0.16,0.51
10.31449294090271,-0.23,-0.39,-0.19,0.49
10.324444055557251,-0.51,-0.29,-0.28,0.65
10.384973049163818,-0.64,-0.4,-0.55,0.93
10.386315107345581,-0.32,-0.87,-0.82,1.23
10.388363122940063,0.04,-1.2,-0.37,1.25
10.390957117080688,0.15,-1.27,0.31,1.31
10.394388914108276,0.26,-1.62,0.33,1.67
10.39567494392395,0.38,-2.31,-0.03,2.34
10.41223406791687,0.56,-3.17,0.13,3.22
10.413496017456055,0.6,-3.89,0.4,3.95
10.416059017181396,-0.01,-4.71,0.58,4.74
10.423800945281982,-1.14,-5.41,0.08,5.52
10.484323978424072,-2.26,-5.64,0.04,6.07
10.485677003860474,-2.9,-5.4,0.82,6.18
10.487740993499756,-2.87,-5.07,1.62,6.04
10.490342855453491,-2.46,-5.0,2.08,5.94
10.492923021316528,-2.41,-4.89,2.66,6.06
10.49399995803833,-2.83,-4.98,2.55,6.26
10.512091875076294,-3.39,-5.33,1.51,6.49
10.513370037078857,-3.5,-5.81,-0.09,6.78
10.515985012054443,-3.41,-4.83,-1.08,6.01
10.523025035858154,-4.35,-2.42,-1.2,5.12
10.584357023239136,-6.47,-0.74,-0.96,6.58
10.585731029510498,-8.25,-0.43,-1.87,8.47
10.587805032730103,-7.92,-1.65,-3.09,8.66
10.590487957000732,-5.49,-4.3,-1.92,7.23
10.59299111366272,-2.37,-6.73,-0.63,7.16
10.59409499168396,0.11,-7.23,-2.47,7.64
10.613518953323364,-0.26,-6.68,-2.59,7.16
10.61487889289856,-1.42,-5.76,-0.73,5.97
10.617583990097046,-1.34,-5.22,0.14,5.39
10.622278928756714,-0.48,-5.23,-0.56,5.28
10.683681011199951,-0.13,-5.62,-1.37,5.78
10.685235023498535,-0.26,-5.58,-1.8,5.86
10.686340093612671,-0.4,-5.42,-1.33,5.59
10.69696307182312,-0.71,-5.17,-0.22,5.22
10.698184967041016,-1.51,-4.76,0.47,5.01
10.699358940124512,-2.45,-4.18,0.83,4.91
10.702067136764526,-3.25,-3.23,1.01,4.69
10.70459794998169,-3.69,-2.02,1.3,4.4
10.712427854537964,-3.91,-0.77,1.72,4.34
10.721842050552368,-3.92,0.29,2.33,4.56
10.789056062698364,-3.89,1.32,2.81,4.97
10.79064393043518,-3.79,2.08,2.99,5.25
10.791835069656372,-3.56,2.99,2.94,5.5
10.794389963150024,-3.34,3.81,2.59,5.69
10.812289953231812,-3.33,4.36,2.33,5.96
10.813864946365356,-3.56,4.6,2.49,6.32
10.81644606590271,-3.92,4.65,2.69,6.65
10.818830966949463,-4.1,4.88,2.95,7.02
10.821352005004883,-3.9,5.22,3.01,7.17
10.824002027511597,-3.57,5.63,2.74,7.2
10.888806104660034,-3.5,6.0,2.23,7.29
10.890154123306274,-3.64,6.18,2.27,7.52
10.892603158950806,-3.27,6.2,2.74,7.52
10.893624067306519,-2.42,6.49,2.77,7.45
10.911955118179321,-1.51,6.85,2.02,7.29
10.913190126419067,-0.97,7.18,0.92,7.3
10.915732145309448,-0.83,7.38,0.43,7.43
10.918035984039307,-0.68,7.48,0.59,7.53
10.92074990272522,-0.05,7.44,0.15,7.44
10.923334836959839,0.76,7.28,-0.91,7.37
10.988270044326782,1.53,6.99,-1.61,7.33
10.989614963531494,2.53,6.55,-1.7,7.22
10.991605997085571,3.88,6.05,-1.64,7.37
10.992754936218262,5.34,5.59,-1.84,7.94
10.99496603012085,6.53,5.51,-2.58,8.92
10.997463941574097,7.13,5.58,-3.23,9.61
10.999886989593506,7.07,5.51,-3.35,9.56
11.002361059188843,6.85,5.05,-3.32,9.13
11.009529829025269,6.8,4.1,-3.23,8.57
11.019624948501587,6.83,3.1,-2.69,7.96
11.088418006896973,6.53,2.53,-1.94,7.26
11.089965105056763,6.17,2.66,-1.45,6.87
11.09118103981018,6.27,3.45,-0.58,7.17
11.092326879501343,7.66,4.2,0.66,8.76
11.11313796043396,9.42,5.23,-8.5,13.72
11.114469051361084,10.21,0.88,-21.57,23.88
11.11682915687561,8.65,-14.74,-7.85,18.8
11.119626998901367,-1.56,-28.93,15.86,33.02
11.122028112411499,-10.43,-16.99,12.63,23.6
11.124683141708374,-4.02,-3.64,-2.51,5.97
11.128630876541138,2.9,0.12,-9.37,9.8
11.192742109298706,6.09,3.35,-2.76,7.47
11.1942880153656,4.66,5.93,3.13,8.16
11.195471048355103,1.63,6.96,0.89,7.2
11.198538064956665,1.17,6.6,-2.76,7.24
11.201035022735596,1.96,4.36,-0.89,4.86
11.203297853469849,2.9,1.85,1.36,3.69
11.205785036087036,2.62,-0.38,-0.27,2.66
11.208294153213501,1.44,-2.9,-1.78,3.69
11.218345880508423,0.29,-5.16,-1.15,5.29
11.228929996490479,-0.26,-5.89,0.02,5.89
11.29302191734314,-0.24,-3.94,0.05,3.94
11.29430890083313,-0.02,-0.97,-1.24,1.57
11.295509099960327,0.25,0.97,-2.16,2.38
11.298480987548828,0.19,1.8,-1.91,2.63
11.300799131393433,-0.17,2.0,-1.04,2.26
11.303316831588745,-0.45,1.88,-0.53,2.0
11.305812120437622,-0.46,1.31,-0.65,1.53
11.308343172073364,-0.2,0.39,-0.4,0.59
11.317641019821167,0.11,-0.67,0.39,0.78
11.327298879623413,0.44,-1.44,0.62,1.62
11.393617868423462,0.74,-1.39,0.18,1.58
11.394979000091553,0.89,-0.72,0.11,1.15
11.396152973175049,0.82,-0.15,0.11,0.84
11.398896932601929,0.34,-0.04,0.15,0.37
11.401410818099976,-0.23,-0.32,0.69,0.79
11.40389609336853,-0.42,-0.52,0.28,0.72
11.406398057937622,-0.23,-0.17,-0.62,0.68
11.40890097618103,0.05,0.36,-0.48,0.6
11.416834115982056,-0.05,0.64,-0.33,0.72
11.42662000656128,-0.85,0.59,-0.24,1.06
11.493247032165527,-1.77,0.33,0.01,1.8
11.494540929794312,-2.21,0.33,-0.07,2.23
11.495659112930298,-1.92,0.49,-0.48,2.03
11.498450994491577,-1.46,0.48,-0.49,1.61
11.500881910324097,-1.35,0.3,-0.02,1.38
11.503324031829834,-1.25,0.08,0.24,1.27
11.505820035934448,-1.25,-0.25,0.46,1.35
11.508133172988892,-1.14,-0.42,0.69,1.39
11.515899896621704,-0.76,-0.28,0.51,0.95
11.525779008865356,-0.4,-0.15,0.48,0.64
11.59749698638916,-0.38,-0.35,0.65,0.83
11.598841905593872,-0.66,-0.92,0.15,1.14
11.600035905838013,-0.96,-1.39,-0.22,1.7
11.602911949157715,-1.17,-1.38,0.26,1.82
11.605528116226196,-1.04,-1.13,0.42,1.59
11.608042001724243,-0.69,-0.83,-0.24,1.1
11.610487937927246,-0.3,-0.79,0.56,1.01
11.611593961715698,0.35,-0.88,0.7,1.17
11.628520965576172,0.87,-0.85,0.24,1.23
11.630414962768555,1.14,-0.6,0.15,1.29
11.69688105583191,1.24,-0.6,-0.04,1.37
11.698292016983032,1.08,-0.79,-0.44,1.4
11.699399948120117,0.75,-1.33,-0.38,1.57
11.702105045318604,0.32,-2.07,-0.04,2.09
11.70442795753479,-0.27,-3.21,-0.21,3.22
11.706830024719238,-1.28,-5.01,-0.21,5.17
11.709695100784302,-2.33,-6.44,0.47,6.86
11.711637020111084,-2.42,-6.4,0.92,6.9
11.730014085769653,-1.93,-5.73,0.4,6.05
11.73143196105957,-2.25,-5.74,0.41,6.17
11.796856164932251,-2.3,-5.98,0.16,6.4
11.798429012298584,-1.99,-4.91,0.28,5.3
11.799572944641113,-3.16,-2.71,-0.13,4.16
11.802479028701782,-6.38,-0.43,-0.83,6.44
11.804689168930054,-8.88,-0.27,-1.74,9.05
11.807168960571289,-8.42,-2.28,-3.71,9.47
11.80995488166809,-4.64,-6.0,-2.32,7.93
11.81106686592102,-0.9,-8.01,0.12,8.06
11.828902006149292,-0.56,-7.29,0.77,7.35
11.830427885055542,-1.99,-6.2,1.35,6.65
11.89686393737793,-2.82,-5.73,1.6,6.58
11.898441076278687,-2.06,-6.58,0.28,6.9
11.899564981460571,-0.94,-7.64,-0.96,7.75
11.9024498462677,-1.05,-7.62,-0.53,7.71
11.904937028884888,-1.65,-6.86,-0.12,7.05
11.907438039779663,-2.47,-6.04,-0.63,6.55
11.90992283821106,-2.78,-5.31,-1.34,6.14
11.910997152328491,-2.2,-4.71,-1.84,5.51
11.92900013923645,-1.41,-4.39,-1.92,4.99
11.93036699295044,-0.92,-4.23,-1.45,4.56
11.933050870895386,-0.87,-4.06,-0.79,4.22
12.001687049865723,-1.63,-3.67,-0.01,4.01
12.003262996673584,-2.84,-3.04,0.61,4.2
12.004357099533081,-3.81,-2.1,1.14,4.49
12.007253885269165,-4.28,-1.06,1.69,4.72
12.010087966918945,-4.73,0.0,2.09,5.17
12.011186838150024,-5.43,1.19,2.61,6.14
12.02978801727295,-6.27,2.52,3.09,7.43
12.03114914894104,-7.08,3.81,3.28,8.68
12.033890962600708,-7.68,5.0,3.29,9.73
12.036493062973022,-7.87,5.98,3.22,10.39
12.103583097457886,-7.58,6.61,3.04,10.5
12.105088949203491,-7.21,6.83,2.91,10.34
12.106197118759155,-6.96,6.63,2.8,10.01
12.108956098556519,-6.65,6.17,2.69,9.46
12.110054016113281,-6.15,5.69,2.75,8.81
12.11250615119934,-5.42,5.44,3.04,8.25
12.114936113357544,-4.61,5.58,3.23,7.92
12.117483854293823,-3.8,6.06,3.17,7.82
12.121479034423828,-2.81,6.75,2.69,7.79
12.131840944290161,-1.5,7.45,1.97,7.85
12.201340913772583,0.0,7.55,1.43,7.68
12.20269513130188,1.34,7.07,1.02,7.26
12.203855991363525,2.1,6.59,0.58,6.94
12.206845045089722,2.88,6.14,0.11,6.78
12.209201097488403,4.12,5.58,-0.41,6.94
12.210284948348999,5.91,5.09,-0.66,7.82
12.213263034820557,8.12,4.74,-0.51,9.41
12.21580195426941,9.64,4.1,-0.38,10.48
12.220736026763916,9.57,3.52,-0.53,10.21
12.23082184791565,9.41,2.93,-1.15,9.92
12.301969051361084,9.64,2.25,-2.26,10.15
12.303328037261963,9.7,1.62,-2.83,10.23
12.30453085899353,9.55,0.99,-2.89,10.02
12.307421922683716,8.77,0.41,-2.87,9.23
12.310220956802368,7.8,0.0,-2.41,8.16
12.311326026916504,6.57,0.18,-2.73,7.11
12.329689025878906,6.47,0.81,-4.81,8.1
12.331030130386353,9.81,0.28,-8.84,13.2
12.333732843399048,15.55,-7.06,-3.84,17.5
12.336282968521118,14.63,-20.65,17.65,30.85
12.403773069381714,-3.0,-23.12,21.84,31.94
12.405401945114136,-14.02,-12.27,1.55,18.69
12.406469106674194,-14.66,-0.85,-12.09,19.02
12.409310102462769,-9.42,5.89,-14.29,18.1
12.41042685508728,-0.51,7.42,-6.64,9.97
12.41346287727356,7.4,5.68,8.31,12.49
12.41590404510498,10.11,3.5,11.89,15.99
12.418419122695923,5.78,2.52,0.45,6.32
12.420912027359009,3.58,1.88,-5.45,6.78
12.429594039916992,5.23,-0.08,-1.05,5.33
12.503031969070435,6.32,-2.59,1.92,7.09
12.50440001487732,4.69,-4.28,0.27,6.35
12.505616903305054,2.32,-5.0,-1.69,5.76
12.508551836013794,0.84,-4.31,-1.39,4.6
12.510926008224487,0.23,-2.61,-0.89,2.76
12.512068033218384,0.0,-0.7,-1.25,1.43
12.529845952987671,0.06,0.95,-1.24,1.56
12.531221151351929,-0.26,1.79,-0.79,1.97
12.533815145492554,-0.52,2.11,-0.18,2.18
12.536314964294434,-0.48,1.8,0.15,1.86
12.602962017059326,-0.08,0.94,-0.23,0.97
12.604542970657349,0.7,0.2,-0.19,0.75
12.605642080307007,1.06,-0.49,0.63,1.32
12.608382940292358,1.3,-1.1,0.8,1.88
12.610831022262573,1.57,-1.23,0.19,2.0
12.611922025680542,1.77,-1.04,0.02,2.05
12.63115382194519,1.92,-0.65,0.15,2.03
12.632373094558716,1.69,0.0,0.06,1.69
12.633522033691406,1.43,0.31,-0.24,1.48
12.636178016662598,0.94,0.43,-0.3,1.07
12.703770875930786,0.03,0.34,0.06,0.34
12.705327033996582,-0.55,-0.11,-0.21,0.59
12.706449031829834,-0.8,-0.36,-0.77,1.16
12.709121942520142,-1.02,0.09,-0.63,1.2
12.7102210521698,-0.99,0.71,-0.39,1.27
12.712146997451782,-0.86,1.06,-0.18,1.37
12.714593172073364,-0.8,0.92,0.07,1.22
12.717075109481812,-0.84,0.67,0.36,1.13
12.719454050064087,-0.71,0.5,0.44,0.97
12.72719693183899,-1.04,0.36,0.49,1.2
12.737256050109863,-1.52,0.33,0.68,1.69
12.8072669506073,-1.3,0.42,0.78,1.57
12.808833837509155,-1.24,0.52,0.73,1.53
12.810052156448364,-1.26,0.45,1.0,1.67
12.811223030090332,-1.07,0.13,1.29,1.68
12.81398606300354,-0.67,-0.14,0.43,0.8
12.816487073898315,-0.61,-0.1,0.04,0.61
12.818888902664185,-0.24,0.07,0.33,0.41
12.821405172348022,0.33,-0.02,0.04,0.33
12.826439142227173,0.45,-0.28,0.07,0.53
12.836633920669556,0.14,-0.48,0.84,0.97
12.905972957611084,-0.42,-0.53,1.11,1.29
12.907533884048462,-0.58,-0.34,0.48,0.82
12.908781051635742,-0.5,-0.08,0.07,0.51
12.909959077835083,-0.37,0.0,-0.09,0.38
12.929263830184937,-0.28,-0.15,0.04,0.32
12.930689096450806,-0.34,-0.57,0.34,0.74
12.93344497680664,-0.46,-0.93,0.46,1.13
12.936097860336304,-0.58,-1.09,0.57,1.35
12.938707113265991,-0.71,-0.94,0.32,1.22
12.941148042678833,-0.73,-0.85,-0.35,1.17
13.009580850601196,-0.9,-1.03,-0.39,1.42
13.010905981063843,-1.55,-1.27,0.12,2.0
13.012975931167603,-2.27,-2.09,0.78,3.18
13.015641927719116,-3.13,-3.31,1.03,4.67
13.017931938171387,-4.16,-4.54,1.59,6.35
13.020373106002808,-5.05,-5.69,2.19,7.91
13.0228750705719,-5.51,-6.91,2.02,9.06
13.025429010391235,-5.7,-8.19,2.29,10.23
13.027847051620483,-5.93,-8.82,3.21,11.1
13.035295009613037,-5.49,-9.13,3.19,11.12
13.11316704750061,-4.74,-10.14,2.97,11.58
13.114547967910767,-4.21,-11.96,3.3,13.1
13.115725994110107,-4.53,-13.33,4.96,14.92
13.118628978729248,-5.25,-12.28,5.17,14.32
13.121133089065552,-4.3,-9.98,-0.46,10.87
13.123559951782227,-4.23,-7.22,-3.28,8.98
13.126035928726196,-5.27,-4.64,-2.36,7.4
13.127086877822876,-5.28,-3.23,-1.84,6.45
13.130226850509644,-4.37,-3.11,-2.64,5.97
13.134220838546753,-3.53,-3.81,-2.96,5.97
13.211464166641235,-3.5,-4.64,-1.96,6.13
13.212971925735474,-3.36,-5.75,-0.63,6.68
13.214139938354492,-2.52,-6.22,-1.3,6.83
13.216876029968262,-1.62,-5.54,-0.67,5.81
13.219380140304565,-1.2,-4.25,2.93,5.29
13.221874952316284,-1.21,-2.53,5.9,6.53
13.224370956420898,-0.63,-0.89,6.22,6.31
13.227345943450928,0.33,0.5,5.07,5.1
13.22842001914978,0.43,1.89,4.32,4.73
13.246922016143799,-0.83,2.71,5.14,5.86
13.315964937210083,-2.61,2.76,6.58,7.59
13.317528009414673,-3.57,2.32,7.01,8.2
13.318696022033691,-3.33,1.42,6.15,7.13
13.321630001068115,-2.28,0.49,5.3,5.79
13.323929071426392,-1.51,-0.2,5.42,5.62
13.326359033584595,-1.21,-0.56,5.91,6.05
13.327425003051758,-1.11,-0.6,6.33,6.45
13.330579996109009,-0.63,-0.33,6.55,6.58
13.333194017410278,0.31,0.46,5.92,5.94
13.33569884300232,1.22,1.48,5.12,5.46
13.410925149917603,2.0,2.32,4.81,5.7
13.412526845932007,2.8,2.88,4.3,5.88
13.413645029067993,3.53,3.36,3.5,6.0
13.416611909866333,3.98,3.78,2.34,5.96
13.418848037719727,3.83,3.98,1.28,5.66
13.421343088150024,3.25,3.91,1.21,5.22
13.423846960067749,3.21,3.66,1.12,4.99
13.426213026046753,3.87,3.4,1.09,5.26
13.427251100540161,4.76,3.12,0.95,5.77
13.43215012550354,5.35,3.02,1.04,6.23
13.510594129562378,5.57,2.95,1.39,6.45
13.512142896652222,6.13,2.9,1.13,6.87
13.513231992721558,6.88,2.96,0.07,7.49
13.516152143478394,7.29,3.2,-1.2,8.05
13.518640995025635,7.19,3.42,-1.9,8.18
13.521162986755371,7.11,3.36,-1.64,8.03
13.523648977279663,7.35,3.01,-2.15,8.22
13.526148080825806,7.88,2.47,-3.1,8.82
13.527194023132324,8.28,1.98,-3.19,9.09
13.531430959701538,8.2,1.68,-2.49,8.73
13.54154896736145,7.85,1.49,-1.6,8.14
13.614666938781738,7.47,1.43,-1.02,7.67
13.616014957427979,7.16,1.69,-1.79,7.57
13.618108987808228,6.38,2.0,-4.72,8.18
13.620677947998047,5.45,0.2,-6.57,8.53
13.623153924942017,4.41,-5.4,-6.57,9.57
13.625455141067505,1.92,-13.05,0.81,13.21
13.627858877182007,-1.16,-16.13,11.42,19.79
13.628939867019653,-2.42,-8.77,8.58,12.5
13.647222995758057,-2.04,-0.37,-1.38,2.49
13.648658990859985,-0.73,4.92,-6.33,8.05
13.720468044281006,2.61,7.78,-5.67,9.97
13.722002983093262,6.48,8.17,-2.68,10.76
13.723114013671875,7.72,6.84,-0.27,10.31
13.725879907608032,5.34,5.37,-0.41,7.58
13.728315114974976,2.45,3.27,-0.64,4.13
13.729461908340454,1.8,-0.09,-0.18,1.81
13.746250867843628,2.08,-4.25,-0.03,4.73
13.747635126113892,1.77,-7.92,-0.75,8.14
13.750159978866577,1.33,-8.75,-1.53,8.98
13.752727031707764,0.92,-5.91,-0.83,6.03
13.824918031692505,1.02,-2.84,0.58,3.07
13.826529026031494,1.28,-0.76,0.54,1.58
13.827674150466919,1.21,0.87,-0.63,1.61
13.830044984817505,0.98,1.97,-1.14,2.47
13.831888914108276,0.58,2.48,-0.99,2.73
13.834280014038086,0.24,2.52,-0.94,2.7
13.83678412437439,-0.03,2.12,-1.36,2.51
13.83929991722107,-0.11,1.31,-1.18,1.76
13.841817140579224,0.12,0.46,-0.76,0.89
13.844259023666382,0.4,-0.16,-1.0,1.08
13.915603876113892,0.58,-0.56,-1.57,1.76
13.917181015014648,0.54,-0.91,-1.54,1.86
13.918411016464233,0.43,-1.21,-0.82,1.52
13.921394109725952,0.16,-1.15,-0.23,1.18
13.923900842666626,0.04,-0.64,-0.36,0.73
13.92647910118103,0.22,0.32,-0.54,0.66
13.927533864974976,0.26,1.0,-0.6,1.19
13.930690050125122,-0.02,0.97,-0.53,1.1
13.932880163192749,-0.19,0.36,-0.38,0.55
13.938430070877075,-0.08,-0.39,0.24,0.46
14.018638849258423,0.2,-0.7,0.72,1.02
14.020105123519897,0.36,-0.63,0.61,0.94
14.021201848983765,0.31,-0.62,-0.06,0.69
14.024116039276123,-0.03,-0.12,-0.09,0.15
14.026408910751343,-0.3,0.05,0.24,0.38
14.027480840682983,-0.71,-0.06,0.16,0.73
14.029575109481812,-1.22,0.5,-0.16,1.32
14.031978845596313,-1.11,0.67,-0.09,1.29
14.034417867660522,-1.26,0.37,0.47,1.39
14.037721872329712,-1.88,0.14,0.21,1.89
14.118272066116333,-2.31,0.16,-0.57,2.38
14.11981987953186,-2.07,0.39,-0.61,2.19
14.12092399597168,-1.33,0.51,-0.09,1.42
14.123832941055298,-0.82,0.19,0.08,0.84
14.126353979110718,-0.95,-0.47,-0.03,1.06
14.127436876296997,-1.38,-1.08,-0.24,1.76
14.129554986953735,-1.21,-1.38,-1.28,2.23
14.131983041763306,-0.35,-1.39,-1.31,1.94
14.134448051452637,0.75,-1.18,-0.79,1.6
14.137234926223755,1.46,-1.16,-0.32,1.89
14.217440843582153,1.38,-1.55,0.45,2.12
14.218961954116821,0.92,-2.2,1.07,2.61
14.220039129257202,0.56,-2.7,1.5,3.13
14.22288203239441,0.22,-3.16,1.76,3.62
14.225218057632446,-0.24,-3.33,1.83,3.8
14.22804594039917,-0.76,-3.62,2.07,4.23
14.229280948638916,-0.99,-3.78,2.56,4.67
14.247925996780396,-1.02,-4.24,2.71,5.13
14.249348878860474,-1.94,-5.42,2.46,6.26
14.252015829086304,-2.8,-6.7,2.25,7.6
14.326635122299194,-2.99,-7.04,2.19,7.95
14.328537940979004,-3.26,-7.51,1.74,8.36
14.32978081703186,-3.11,-8.91,0.56,9.45
14.332545042037964,-1.85,-7.7,0.63,7.94
14.334954977035522,-2.99,-2.44,0.61,3.9
14.337475061416626,-5.13,1.07,-1.94,5.58
14.339854955673218,-6.6,-0.91,-3.08,7.33
14.34238886833191,-7.68,-5.94,-3.05,10.17
14.344769954681396,-6.32,-9.66,-1.2,11.6
14.345854043960571,-3.16,-9.77,-0.55,10.28
14.362920045852661,-2.6,-8.56,-1.83,9.13
14.436081171035767,-3.2,-7.94,-1.67,8.72
14.437649965286255,-3.41,-7.68,-0.16,8.4
14.43883490562439,-2.66,-7.99,1.42,8.54
14.441497087478638,-1.69,-8.23,1.25,8.49
14.444606065750122,-1.45,-7.81,0.27,7.94
14.445714950561523,-1.22,-6.95,-0.15,7.05
14.463640928268433,-1.12,-6.24,0.19,6.34
14.464918851852417,-1.84,-5.48,0.55,5.8
14.46752405166626,-3.0,-4.49,0.81,5.46
14.469868898391724,-4.13,-3.16,1.18,5.33
14.544703960418701,-5.04,-1.74,1.9,5.66
14.546154975891113,-5.76,-0.23,2.7,6.36
14.547305822372437,-6.26,1.21,3.45,7.24
14.550179958343506,-6.17,2.57,4.02,7.79
14.552680969238281,-5.56,4.06,4.11,8.01
14.55519700050354,-5.05,5.66,3.7,8.43
14.557585000991821,-4.95,6.76,3.02,8.9
14.560165166854858,-5.32,7.17,2.61,9.3
14.561193943023682,-5.74,6.89,3.21,9.52
14.564424991607666,-5.61,6.33,4.04,9.37
14.638247013092041,-5.07,6.27,4.08,9.03
14.639747858047485,-4.56,6.67,3.51,8.8
14.640846014022827,-4.36,7.37,3.27,9.16
14.643513917922974,-3.94,8.12,3.38,9.63
14.644613027572632,-2.84,8.49,3.46,9.59
14.646286964416504,-1.49,8.4,3.35,9.16
14.648836851119995,-0.08,8.06,2.9,8.56
14.651288032531738,1.26,7.44,2.0,7.8
14.653785943984985,2.48,6.6,0.81,7.09
14.656272172927856,4.01,6.0,-0.12,7.21
14.731046915054321,6.08,5.7,-0.97,8.39
14.732610940933228,7.97,5.77,-2.69,10.2
14.733712911605835,9.06,6.01,-4.07,11.6
14.747381925582886,9.81,5.95,-4.91,12.47
14.748855829238892,10.34,5.69,-5.4,12.97
14.751468896865845,10.47,5.61,-5.28,12.99
14.754034996032715,9.79,5.93,-4.71,12.37
14.756530046463013,8.66,6.6,-4.27,11.69
14.75906491279602,8.95,7.34,-3.62,12.12
14.761528015136719,12.15,8.18,-9.17,17.28
14.835141897201538,14.13,6.52,-21.22,26.31
14.836688995361328,12.95,0.6,-19.47,23.39
14.837870836257935,4.17,-1.36,5.87,7.32
14.840565919876099,-7.84,-3.63,20.76,22.48
14.842879056930542,-11.18,-8.2,2.78,14.14
14.845263004302979,-6.58,-14.25,-11.91,19.7
14.84638500213623,5.36,-15.17,-2.14,16.23
14.864861011505127,13.61,-10.99,7.72,19.12
14.866158962249756,7.22,-3.53,1.02,8.1
14.868842840194702,-0.76,2.37,-4.82,5.42
14.944144010543823,-3.52,5.9,-1.85,7.11
14.94570803642273,-2.11,7.28,2.05,7.85
14.946810007095337,0.93,6.94,0.47,7.01
14.949649095535278,3.25,5.17,-2.17,6.48
14.951967000961304,3.6,2.24,-1.59,4.52
14.95448899269104,2.47,-0.65,0.03,2.55
14.956989049911499,1.11,-3.37,0.38,3.56
14.959470987319946,0.24,-5.56,-0.51,5.58
14.962080001831055,0.19,-5.5,-0.86,5.57
14.963181018829346,0.2,-3.2,-0.44,3.23
15.05455493927002,0.08,-0.98,-0.27,1.01
15.05588984489441,-0.2,0.43,-0.53,0.71
15.057059049606323,-0.64,1.37,-0.74,1.68
15.059978008270264,-0.77,1.66,-0.91,2.04
15.062422037124634,-0.51,1.62,-0.88,1.91
15.063544034957886,-0.03,1.18,-0.59,1.31
15.080971002578735,0.28,0.47,0.11,0.55
15.082397937774658,0.41,-0.16,0.33,0.55
15.084722995758057,0.48,-0.78,0.18,0.93
15.087371110916138,0.65,-1.21,0.45,1.44
15.16304898262024,0.57,-1.06,0.7,1.39
15.164643049240112,0.66,-0.62,0.46,1.01
15.165727853775024,0.16,-0.32,0.21,0.41
15.168560028076172,-0.55,-0.08,0.55,0.78
15.17102313041687,-0.73,0.33,0.55,0.97
15.17330813407898,-0.8,0.67,0.26,1.07
15.175822973251343,-0.69,1.03,-0.1,1.24
15.178329944610596,-0.6,1.21,-0.47,1.43
15.179432153701782,-0.56,1.16,-0.37,1.34
15.198019027709961,-0.76,1.01,-0.41,1.32
15.199519872665405,-1.28,0.36,-0.33,1.37
15.275574922561646,-1.8,-0.14,-0.12,1.8
15.277054071426392,-2.0,-0.32,-0.01,2.02
15.27817702293396,-1.32,-0.3,0.28,1.38
15.279370069503784,-0.38,-0.29,-0.14,0.49
15.280580997467041,-0.51,-0.87,0.23,1.03
15.283057928085327,-1.43,-1.36,0.79,2.12
15.285488843917847,-1.23,-1.46,0.42,1.95
15.287883043289185,0.09,-1.12,-0.56,1.25
15.290344953536987,1.08,-0.81,-0.86,1.6
15.292870998382568,1.36,-0.99,-0.95,1.93
15.36902904510498,1.15,-1.27,-0.54,1.79
15.370381116867065,0.75,-1.55,0.01,1.72
15.372440099716187,0.45,-1.79,0.21,1.85
15.37506103515625,0.45,-2.32,0.23,2.37
15.377208948135376,0.4,-3.14,0.59,3.21
15.379201173782349,-0.02,-3.64,1.32,3.87
15.381663084030151,-0.49,-4.36,1.53,4.64
15.384088039398193,-1.79,-5.97,1.27,6.36
15.386533975601196,-3.47,-7.13,1.27,8.03
15.3888680934906,-4.28,-7.13,1.69,8.48
15.46639084815979,-3.71,-6.76,2.06,7.98
15.468027830123901,-2.72,-8.22,1.51,8.78
15.469122171401978,-2.04,-10.51,1.67,10.83
15.4720938205719,-2.91,-8.14,3.42,9.29
15.474529027938843,-5.67,-0.65,2.49,6.22
15.477030992507935,-7.1,3.63,-1.8,8.17
15.478101015090942,-9.27,2.06,-3.18,10.01
15.480167150497437,-12.13,-3.56,-1.87,12.77
15.482589960098267,-11.38,-9.49,-2.05,14.95
15.485095024108887,-5.99,-11.52,-1.21,13.04
15.561800956726074,-1.88,-9.61,0.0,9.79
15.563360929489136,-1.14,-7.9,0.13,7.98
15.564451932907104,-1.42,-7.53,-0.67,7.69
15.567219018936157,-1.25,-8.08,-1.86,8.38
15.569687128067017,-0.82,-9.21,-2.21,9.5
15.572160005569458,-1.14,-8.91,-1.55,9.11
15.574679136276245,-1.89,-7.69,-0.96,7.97
15.57713794708252,-2.36,-6.56,-0.88,7.02
15.57818603515625,-2.63,-5.7,-1.36,6.42
15.580304861068726,-3.09,-4.93,-1.65,6.04
15.656244039535522,-3.6,-4.19,-0.9,5.59
15.657811880111694,-4.19,-3.32,0.6,5.37
15.658899068832397,-5.1,-2.19,2.09,5.93
15.66190791130066,-6.32,-0.8,2.95,7.02
15.66303300857544,-6.91,0.57,3.49,7.76
15.681558847427368,-6.67,1.73,3.88,7.9
15.682819128036499,-6.31,3.1,4.24,8.2
15.685335874557495,-6.18,4.91,4.45,9.06
15.687631845474243,-6.23,6.55,4.05,9.9
15.68991208076477,-6.49,7.87,3.37,10.74
15.766873121261597,-6.68,8.68,3.13,11.39
15.76842999458313,-6.36,9.03,3.37,11.54
15.76951003074646,-5.4,9.07,3.43,11.09
15.78231406211853,-4.21,9.16,3.17,10.56
15.78407597541809,-3.02,9.58,2.51,10.35
15.78666090965271,-2.22,10.15,1.6,10.51
15.789186000823975,-1.8,10.34,1.45,10.59
15.79170298576355,-1.22,10.26,2.11,10.54
15.794120073318481,-0.22,9.95,1.89,10.13
15.795212984085083,1.1,9.72,0.86,9.81
15.873018980026245,2.84,9.5,-0.54,9.93
15.874588012695312,5.19,9.14,-2.77,10.86
15.875708818435669,7.76,9.28,-4.72,12.98
15.878757953643799,9.96,9.29,-6.16,14.94
15.879894971847534,11.72,8.82,-7.55,16.49
15.898946046829224,13.77,8.11,-7.16,17.51
15.900174856185913,16.8,8.37,-8.08,20.43
15.901314973831177,20.01,10.34,-24.15,33.02
15.904002904891968,27.74,0.91,-42.16,50.47
15.906596899032593,36.55,-14.66,-1.36,39.4
15.980345964431763,10.66,-19.38,60.23,64.16
15.981900930404663,-9.8,-11.21,12.06,19.16
15.983031988143921,-11.36,-11.68,-29.97,34.11
16.00008511543274,-13.0,-10.46,-20.7,26.58
16.001471042633057,-2.19,-6.02,6.85,9.37
16.00391411781311,3.88,-1.84,20.49,20.93
16.006055116653442,-0.25,2.36,1.56,2.84
16.008440017700195,-1.45,5.63,-8.47,10.27
16.010663986206055,-0.07,7.48,-2.38,7.84
16.011765956878662,2.34,7.02,2.94,7.96
16.013893842697144,4.67,4.79,-0.62,6.71
16.087333917617798,4.36,1.85,-4.88,6.8
16.088857889175415,2.94,-1.24,-3.21,4.52
16.089977025985718,2.16,-4.93,-0.25,5.38
16.092841863632202,1.89,-7.17,-0.48,7.43
16.095380067825317,1.99,-5.91,-2.2,6.61
16.09648108482361,1.79,-3.0,-1.96,4.0
16.115121126174927,0.45,-1.16,-0.71,1.43
16.116660833358765,-1.18,0.22,-0.48,1.29
16.119248151779175,-1.94,1.5,-0.74,2.56
16.121880054473877,-1.6,2.34,-0.98,2.99
16.19541096687317,-0.88,2.7,-0.64,2.91
16.196983098983765,-0.61,2.38,-0.11,2.45
16.198089838027954,0.16,1.11,-0.02,1.12
16.200873136520386,0.66,-0.49,-0.06,0.82
16.203384160995483,0.93,-1.59,0.0,1.84
16.205835103988647,0.99,-1.8,0.09,2.05
16.208357095718384,0.63,-1.26,0.02,1.4
16.210783004760742,0.08,-0.3,0.2,0.36
16.211822986602783,-0.52,0.22,0.5,0.75
16.213984966278076,-1.03,0.37,0.46,1.18
16.28690004348755,-1.78,0.17,0.63,1.89
16.288469076156616,-2.15,0.37,0.42,2.22
16.28959584236145,-2.01,0.62,-0.33,2.12
16.292412042617798,-2.25,0.4,-0.06,2.28
16.29581594467163,-2.51,0.01,0.67,2.59
16.297260999679565,-2.43,-0.33,1.26,2.75
16.299867868423462,-1.8,-0.42,0.65,1.95
16.302278995513916,-0.96,0.32,0.03,1.01
16.30478596687317,-0.12,0.75,-0.29,0.81
16.307296991348267,0.25,0.68,-0.16,0.74
16.38077187538147,0.18,0.17,-0.67,0.71
16.382357835769653,0.38,-0.64,-1.05,1.28
16.383502960205078,0.76,-1.3,-0.64,1.63
16.3977370262146,1.18,-1.56,-0.13,1.96
16.399374961853027,1.5,-1.22,0.07,1.93
16.40198016166687,1.37,-0.88,0.1,1.63
16.40445899963379,0.54,-0.94,0.36,1.14
16.40696883201599,-0.54,-1.4,0.55,1.59
16.409509897232056,-1.26,-2.07,0.75,2.53
16.412197828292847,-1.53,-2.61,0.84,3.13
16.48489212989807,-1.11,-2.88,0.74,3.17
16.486491918563843,-0.69,-3.42,1.07,3.64
16.4877188205719,-0.19,-3.69,1.93,4.16
16.490607023239136,0.1,-4.45,1.53,4.7
16.493144035339355,-0.77,-6.14,1.54,6.37
16.495532035827637,-1.91,-7.0,1.82,7.48
16.496630907058716,-2.47,-7.12,1.9,7.77
16.513836145401,-2.6,-7.09,1.29,7.66
16.51544499397278,-2.42,-7.32,0.29,7.71
16.518178939819336,-2.6,-5.9,0.47,6.46
16.592159032821655,-4.56,-2.57,0.71,5.28
16.59377098083496,-7.68,0.17,-0.45,7.69
16.594926118850708,-10.13,-0.07,-1.94,10.31
16.596099138259888,-10.63,-3.35,-3.0,11.54
16.614923000335693,-7.2,-7.65,-2.48,10.79
16.6161789894104,-2.33,-9.67,-1.44,10.05
16.618778944015503,-0.83,-8.26,-1.41,8.42
16.621283054351807,-1.95,-6.38,-0.99,6.74
16.623826026916504,-2.81,-5.85,-0.92,6.55
16.626456022262573,-2.85,-6.34,-0.97,7.01
16.70110297203064,-2.29,-6.77,-0.54,7.16
16.702430963516235,-1.87,-6.94,-0.18,7.18
16.704511880874634,-2.22,-6.57,0.02,6.93
16.707077026367188,-2.47,-5.88,-0.26,6.38
16.70973300933838,-2.55,-5.14,-0.64,5.77
16.712399005889893,-2.66,-4.28,-0.46,5.06
16.713515996932983,-2.79,-3.67,0.05,4.61
16.73208498954773,-2.8,-2.99,0.59,4.13
16.73335099220276,-3.06,-2.25,0.96,3.91
16.73462700843811,-3.61,-1.21,1.56,4.11
16.809652090072632,-4.12,-0.34,2.11,4.64
16.81112790107727,-4.58,0.65,2.44,5.22
16.812273025512695,-4.8,1.59,2.86,5.8
16.81455397605896,-4.85,2.38,3.1,6.22
16.816572904586792,-5.21,3.39,3.21,6.99
16.81892204284668,-5.74,4.44,3.46,8.03
16.821274995803833,-5.96,5.54,3.59,8.89
16.82369589805603,-5.81,6.42,3.39,9.29
16.82618999481201,-5.46,7.08,3.08,9.45
16.829306840896606,-5.19,7.42,2.76,9.46
16.830433130264282,-4.87,7.46,2.66,9.29
16.921066999435425,-4.39,7.25,2.79,8.92
16.922364950180054,-3.62,7.1,2.88,8.47
16.923546075820923,-2.76,7.24,2.85,8.25
16.926463842391968,-2.14,7.51,2.71,8.26
16.929145097732544,-1.43,7.67,2.25,8.12
16.930309057235718,-0.23,7.57,1.44,7.7
16.94862699508667,1.36,7.45,0.52,7.59
16.949919939041138,2.93,7.28,-0.17,7.84
16.952150106430054,4.71,7.38,-0.91,8.8
16.954782009124756,6.61,7.59,-1.85,10.23
17.031129121780396,8.18,7.48,-2.94,11.46
17.0328848361969,9.05,6.72,-4.11,11.99
17.033990144729614,9.53,5.54,-4.37,11.85
17.036921977996826,10.42,4.38,-3.52,11.83
17.039461851119995,11.64,3.65,-2.54,12.46
17.041980028152466,12.31,3.34,-2.47,12.99
17.04451012611389,12.01,3.48,-2.8,12.81
17.045598030090332,12.21,3.91,-4.1,13.46
17.04777503013611,14.57,4.59,-12.36,19.65
17.05015206336975,18.03,-1.01,-20.32,27.18
17.126628160476685,16.94,-10.78,-2.98,20.29
17.128198862075806,1.93,-17.64,30.4,35.2
17.12932300567627,-14.11,-14.12,17.94,26.83
17.131067991256714,-15.46,-6.17,-12.95,21.08
17.13356900215149,-10.27,0.62,-20.87,23.26
17.136042833328247,-0.17,2.42,-11.12,11.38
17.138531923294067,9.9,-0.77,7.95,12.72
17.141016006469727,10.59,-0.83,13.93,17.51
17.143522024154663,2.14,2.39,0.1,3.2
17.145979166030884,-0.97,3.74,-6.46,7.52
17.22203803062439,1.08,3.09,-0.73,3.35
17.22359585762024,4.26,0.9,2.91,5.23
17.22480297088623,4.25,-0.4,0.23,4.27
17.22770404815674,2.32,-1.43,-2.07,3.42
17.2300808429718,0.96,-2.85,-0.27,3.01
17.231225967407227,0.94,-3.45,0.63,3.63
17.248077154159546,1.6,-2.76,-1.17,3.39
17.249622106552124,1.58,-1.23,-1.78,2.67
17.252169847488403,0.57,0.11,-0.94,1.1
17.254689931869507,-0.44,0.78,-0.51,1.03
17.333518028259277,-1.26,1.27,-1.06,2.07
17.334959983825684,-1.43,1.03,-1.09,2.07
17.335939168930054,-1.23,0.53,-0.49,1.42
17.33878803253174,-0.46,0.01,-0.36,0.58
17.341305017471313,0.64,-0.66,-0.4,1.0
17.34381890296936,0.74,-0.99,-0.22,1.25
17.34633994102478,0.58,-1.0,-0.13,1.16
17.347453832626343,0.63,-0.53,-0.23,0.85
17.36491894721985,0.46,-0.37,-0.17,0.61
17.366216897964478,0.49,-0.11,-0.42,0.65
17.444897890090942,0.61,0.22,-0.2,0.67
17.446481943130493,0.69,0.25,-0.11,0.74
17.447595834732056,0.37,0.16,-0.25,0.47
17.450394868850708,-0.39,0.0,0.03,0.39
17.452921152114868,-0.98,-0.26,0.07,1.01
17.45546317100525,-1.42,-0.39,0.33,1.5
17.457969903945923,-1.58,-0.23,0.83,1.79
17.46051812171936,-1.39,0.19,0.65,1.54
17.462998151779175,-1.36,0.45,0.24,1.45
17.464107990264893,-1.59,0.69,0.06,1.73
17.55882501602173,-1.59,0.71,-0.12,1.74
17.560088872909546,-1.36,0.56,0.24,1.49
17.56132483482361,-0.77,0.37,0.48,0.97
17.56287407875061,-0.25,0.22,0.62,0.7
17.582023859024048,-0.16,0.13,0.68,0.71
17.58328604698181,-0.23,0.2,0.37,0.47
17.58558702468872,-0.52,0.09,-0.13,0.54
17.588032960891724,-0.94,-0.18,-0.25,0.98
17.5905659198761,-1.32,-0.46,0.11,1.4
17.59321093559265,-1.33,-0.89,0.11,1.6
17.672497034072876,-1.03,-1.37,-0.12,1.71
17.674028158187866,-0.66,-1.04,0.38,1.28
17.675199031829834,-0.37,-0.66,0.1,0.76
17.678160905838013,-0.31,-0.49,-0.16,0.6
17.679252862930298,-0.45,-0.3,-0.07,0.54
17.68163800239563,-0.23,-0.42,-0.65,0.8
17.6842200756073,0.33,-0.84,-0.86,1.24
17.68669605255127,0.87,-1.26,-0.96,1.8
17.68920111656189,0.99,-1.94,-0.35,2.2
17.691776037216187,0.75,-2.58,-0.12,2.68
17.69428300857544,0.55,-3.22,-0.54,3.31
17.773153066635132,0.26,-4.01,0.09,4.01
17.774460077285767,0.12,-4.75,0.36,4.76
17.77655816078186,-0.04,-5.55,0.04,5.55
17.779101133346558,-0.48,-6.34,0.11,6.35
17.780192136764526,-0.63,-7.64,1.06,7.73
17.783189058303833,-0.18,-8.37,2.07,8.62
17.785637140274048,-0.16,-7.76,1.99,8.01
17.788130044937134,-1.28,-6.22,0.43,6.36
17.790719985961914,-2.9,-3.76,-0.64,4.79
17.79319405555725,-3.46,-0.81,-2.4,4.28
17.872630834579468,-3.32,1.45,-3.89,5.31
17.873968839645386,-3.96,1.37,-3.46,5.43
17.876056909561157,-5.73,-0.38,-2.65,6.32
17.878540992736816,-7.05,-1.74,-3.32,7.98
17.879639863967896,-6.92,-1.94,-5.03,8.77
17.88270902633667,-4.37,-1.74,-4.26,6.34
17.885128021240234,0.22,-3.11,-2.74,4.15
17.88763999938965,2.62,-4.86,-2.33,5.99
17.89005398750305,1.68,-5.71,-0.98,6.03
17.892576932907104,-0.71,-6.05,-0.02,6.09
17.973018884658813,-2.06,-6.19,-0.64,6.55
17.974357843399048,-3.12,-5.69,-0.71,6.52
17.976433038711548,-3.98,-4.62,-0.77,6.14
17.978916883468628,-5.34,-3.16,-0.66,6.23
17.980010986328125,-6.87,-2.15,0.37,7.2
17.982990980148315,-7.48,-1.39,1.21,7.7
17.98545813560486,-7.14,-0.87,1.66,7.38
17.987733125686646,-6.55,-0.34,2.01,6.85
17.990326166152954,-6.15,0.15,2.69,6.71
17.99281597137451,-6.19,0.51,3.71,7.23
18.073859930038452,-6.12,1.03,4.2,7.49
18.07527494430542,-5.88,1.46,4.33,7.44
18.077353954315186,-5.41,1.89,4.26,7.14
18.079869985580444,-4.68,2.36,4.35,6.81
18.08107590675354,-3.92,2.66,4.71,6.68
18.09971308708191,-3.42,2.9,5.02,6.73
18.10093903541565,-3.27,3.15,5.07,6.8
18.10208010673523,-3.44,3.36,4.78,6.78
18.10446000099182,-3.99,3.53,4.49,6.96
18.106976985931396,-4.77,3.58,4.56,7.5
18.187988996505737,-5.48,3.53,5.01,8.22
18.189537048339844,-5.98,3.38,5.53,8.81
18.19062900543213,-6.21,3.27,5.65,9.0
18.193511962890625,-6.06,3.27,5.43,8.76
18.19609498977661,-5.57,3.26,5.15,8.25
18.198146104812622,-4.76,3.14,4.87,7.49
18.215473890304565,-3.85,2.82,4.43,6.51
18.21682906150818,-3.3,2.52,4.05,5.8
18.219671964645386,-3.2,2.31,3.62,5.35
18.222087144851685,-2.88,1.71,3.23,4.65
18.304869890213013,-2.41,1.0,2.9,3.9
18.306452989578247,-2.05,0.28,2.56,3.29
18.30761194229126,-1.64,-0.45,2.21,2.78
18.310420036315918,-1.29,-1.14,1.71,2.42
18.313255071640015,-0.74,-1.79,1.13,2.24
18.314356088638306,-0.07,-2.36,0.56,2.42
18.3313090801239,0.86,-2.77,0.06,2.9
18.332876920700073,2.03,-2.93,-0.54,3.6
18.335450887680054,3.45,-2.74,-1.57,4.67
18.337707996368408,5.07,-2.71,-2.74,6.36
18.42076301574707,6.68,-3.02,-3.37,8.06
18.422271966934204,7.59,-3.25,-3.19,8.85
18.423336029052734,7.41,-2.95,-2.73,8.42
18.426249027252197,6.57,-2.08,-2.53,7.34
18.428632974624634,5.76,-1.47,-2.2,6.33
18.429704904556274,5.55,-2.02,-1.39,6.06
18.431653022766113,6.05,-3.28,0.14,6.88
18.434128046035767,6.25,-4.54,1.85,7.94
18.436424016952515,5.43,-4.77,2.29,7.58
18.438771963119507,3.88,-3.74,2.63,5.99
18.521646976470947,2.6,-2.54,3.3,4.9
18.523327112197876,3.32,-2.04,3.72,5.38
18.524429082870483,4.88,-1.38,2.68,5.73
18.52737593650818,6.11,-0.58,1.92,6.43
18.52995800971985,8.72,-1.06,0.91,8.83
18.531079053878784,10.56,-1.42,-0.54,10.66
18.549257040023804,7.64,-0.91,0.52,7.71
18.550480127334595,-2.95,0.68,3.15,4.36
18.553060054779053,-13.12,0.35,5.03,14.05
18.555680990219116,-14.59,-6.04,4.2,16.33
18.558315992355347,-1.49,-16.14,4.47,16.81
18.641808032989502,6.88,-16.74,1.1,18.13
18.643369913101196,6.23,-6.53,-2.87,9.47
18.644526958465576,3.53,1.02,-3.93,5.38
18.648167848587036,2.48,3.41,-1.86,4.6
18.649736166000366,4.26,3.04,-0.64,5.27
18.667284965515137,6.87,2.68,0.32,7.38
18.668540954589844,7.86,3.17,-0.39,8.48
18.671314001083374,6.06,2.95,-3.79,7.73
18.673853158950806,4.55,1.21,-5.71,7.4
18.676349878311157,5.09,-1.86,-5.16,7.48
18.761275053024292,6.16,-4.41,-1.75,7.77
18.762593984603882,5.58,-4.08,1.87,7.16
18.763723134994507,2.42,-1.95,2.36,3.9
18.766703844070435,-0.59,-0.45,0.54,0.91
18.769120931625366,-2.47,0.15,0.03,2.47
18.771430015563965,-3.24,0.02,0.56,3.28
18.774055004119873,-2.84,-0.27,0.68,2.93
18.776620149612427,-2.23,-0.18,-0.03,2.23
18.77911400794983,-1.13,-0.09,-1.45,1.84
18.78016495704651,0.33,-0.18,-2.16,2.19
18.865419149398804,1.91,-0.18,-1.71,2.56
18.866857051849365,3.19,-0.18,-1.02,3.35
18.867841958999634,3.73,-0.27,-0.71,3.8
18.87044095993042,3.42,-0.34,-0.54,3.47
18.872595071792603,2.49,-0.15,-0.44,2.53
18.875200986862183,1.38,-0.17,-0.38,1.44
18.877737998962402,0.08,-0.26,-0.44,0.51
18.88013195991516,-0.96,-0.38,-0.54,1.16
18.881211042404175,-1.61,-0.43,-0.4,1.71
18.89879584312439,-1.91,-0.23,0.14,1.92
18.98362398147583,-1.81,0.08,0.33,1.84
18.98512291908264,-1.88,0.21,-0.07,1.89
18.986279010772705,-1.76,0.24,-0.29,1.79
18.98917508125305,-1.49,0.11,0.03,1.49
18.991698026657104,-1.01,-0.03,0.55,1.15
18.994218111038208,-0.52,-0.21,1.12,1.25
18.996830940246582,-0.56,-0.24,1.39,1.51
18.997920036315918,-1.11,-0.08,1.2,1.63
19.0163791179657,-1.93,0.15,1.0,2.17
19.017771005630493,-2.56,0.33,1.01,2.77
19.103832006454468,-2.81,0.39,0.77,2.93
19.105414152145386,-2.5,0.16,0.36,2.53
19.106510877609253,-1.95,-0.19,0.45,2.01
19.10945701599121,-1.5,-0.55,0.61,1.71
19.111890077590942,-1.21,-0.88,0.43,1.55
19.11432194709778,-1.44,-1.18,0.58,1.94
19.11543297767639,-2.12,-1.44,0.77,2.67
19.132781982421875,-2.92,-1.59,0.63,3.38
19.134019136428833,-3.4,-1.92,0.7,3.96
19.135172128677368,-3.72,-2.58,1.07,4.65
19.22157311439514,-4.13,-3.18,1.36,5.38
19.22356390953064,-4.45,-3.43,1.56,5.83
19.224640130996704,-4.79,-3.3,1.85,6.1
19.227452039718628,-4.97,-3.17,1.82,6.16
19.23030686378479,-5.31,-3.38,2.03,6.61
19.23145890235901,-5.8,-3.85,2.12,7.27
19.253273010253906,-6.22,-5.12,2.26,8.36
19.25464701652527,-6.86,-6.33,2.68,9.71
19.25730800628662,-7.2,-6.99,3.19,10.52
19.25987195968628,-7.02,-7.11,2.71,10.35
19.347110986709595,-6.9,-7.25,1.33,10.09
19.348674058914185,-8.03,-7.28,2.02,11.02
19.34983515739441,-9.22,-7.1,3.14,12.05
19.352630853652954,-8.58,-6.91,1.42,11.1
19.355175018310547,-7.34,-6.4,-1.01,9.79
19.357656955718994,-5.84,-5.63,-2.26,8.42
19.36006498336792,-3.82,-4.88,-2.78,6.79
19.362540006637573,-1.98,-4.47,-2.04,5.29
19.36360192298889,-1.19,-4.38,0.97,4.64
19.36544895172119,-1.75,-4.2,4.3,6.26
19.4527850151062,-2.5,-3.11,3.31,5.18
19.45430302619934,-2.48,-1.18,-1.18,2.98
19.455414056777954,-2.6,0.51,-2.36,3.54
19.458312034606934,-3.43,1.58,0.18,3.78
19.460840940475464,-5.63,2.05,2.86,6.63
19.46373701095581,-7.53,2.2,4.27,8.93
19.464810132980347,-8.02,2.27,4.64,9.53
19.48245406150818,-7.91,2.45,4.87,9.6
19.48414897918701,-7.6,2.68,5.22,9.6
19.486567974090576,-7.46,2.7,5.48,9.64
19.48929190635681,-7.49,3.05,5.39,9.71
19.57924795150757,-7.62,3.54,4.96,9.75
19.58082890510559,-7.5,3.82,4.38,9.48
19.58191990852356,-7.09,3.74,3.75,8.84
19.584848165512085,-6.86,3.39,3.4,8.37
19.587380170822144,-6.52,2.67,3.44,7.84
19.58986210823059,-5.5,1.66,3.59,6.77
19.592355966567993,-4.03,0.58,3.4,5.3
19.594785928726196,-2.36,-0.48,2.89,3.76
19.597144842147827,-0.65,-1.16,2.27,2.63
19.59824299812317,1.17,-1.78,1.96,2.89
19.703768014907837,3.04,-2.2,1.73,4.13
19.70512294769287,4.53,-2.4,1.33,5.29
19.70630717277527,5.23,-2.17,0.86,5.72
19.70924997329712,5.33,-2.12,0.43,5.75
19.711750984191895,5.56,-3.22,0.11,6.42
19.71421194076538,5.21,-5.13,-0.4,7.32
19.71534299850464,5.06,-7.24,-1.12,8.9
19.734338998794556,5.36,-9.12,-2.62,10.89
19.735744953155518,5.98,-9.92,-4.18,12.31
19.7381329536438,5.18,-8.51,-4.95,11.12
19.828763008117676,3.6,-6.05,-4.56,8.38
19.830317974090576,4.55,-5.13,-5.29,8.66
19.831416845321655,7.76,-5.5,-7.52,12.12
19.834298849105835,11.22,-5.91,-9.64,15.92
19.836758852005005,13.91,-4.67,-8.7,17.05
19.839266061782837,15.09,-3.17,-6.53,16.74
19.841742992401123,14.88,-1.45,-6.57,16.33
19.844189882278442,13.71,-0.47,-7.75,15.75
19.84722900390625,12.52,-0.46,-8.77,15.29
19.848340034484863,10.69,-0.75,-9.02,14.0
19.953656911849976,7.55,-2.3,-8.63,11.69
19.955004930496216,-2.26,-4.17,3.83,6.09
19.956187963485718,-13.32,-7.81,17.78,23.54
19.95883584022522,-3.28,-9.74,-0.47,10.28
19.961271047592163,3.45,-7.24,-6.56,10.36
19.963968992233276,2.18,-2.95,1.49,3.95
19.9650981426239,1.71,0.06,1.57,2.32
19.98501992225647,2.42,1.62,-3.4,4.47
19.986303091049194,3.75,1.61,-5.02,6.46
19.988986015319824,5.77,0.37,-3.68,6.85
20.08025598526001,7.49,0.03,-2.64,7.94
20.08179783821106,8.51,0.07,-1.68,8.67
20.082884073257446,8.3,-0.15,-1.14,8.37
20.085742950439453,6.33,-0.65,-1.62,6.56
20.088238954544067,4.3,-0.72,-2.66,5.1
20.090625047683716,3.29,-0.72,-2.99,4.5
20.09290385246277,2.61,-1.03,-2.39,3.68
20.095311880111694,1.9,-1.49,-0.93,2.58
20.097870111465454,0.83,-1.71,0.03,1.9
20.09894585609436,-0.72,-1.07,0.67,1.45
20.20625400543213,-1.88,-0.48,0.23,1.95
20.207597970962524,-2.13,-0.18,-0.51,2.19
20.20875096321106,-1.52,0.11,-0.78,1.71
20.2117440700531,-0.53,0.26,-0.76,0.96
20.21407699584961,0.42,0.19,-0.72,0.85
20.216073989868164,1.03,0.1,-0.92,1.38
20.236174821853638,1.54,0.01,-1.32,2.02
20.237558126449585,2.08,-0.25,-1.59,2.63
20.240219831466675,2.56,-0.53,-0.91,2.76
20.242829084396362,2.27,-0.38,-0.31,2.32
20.33528995513916,1.5,-0.48,-0.35,1.61
20.336874961853027,0.58,-0.41,-0.36,0.79
20.33797597885132,-0.24,-0.25,-0.23,0.41
20.351569890975952,-0.4,-0.34,-0.21,0.56
20.352855920791626,-0.4,-0.15,-0.41,0.59
20.35391116142273,-0.26,0.28,-0.77,0.85
20.356548070907593,-0.48,0.75,-0.61,1.07
20.35906195640564,-0.63,0.57,-1.01,1.31
20.361616849899292,-1.39,0.16,-0.56,1.5
20.364336013793945,-1.82,-0.21,-0.26,1.85
20.455090045928955,-1.35,-0.45,0.19,1.43
20.456645965576172,-0.75,-0.18,0.47,0.9
20.457834005355835,-0.82,-0.31,0.36,0.94
20.46045708656311,-0.93,-0.42,0.95,1.39
20.462985038757324,-1.31,-0.28,1.22,1.81
20.46404004096985,-1.91,0.07,0.67,2.02
20.465911149978638,-2.33,0.67,0.65,2.51
20.468290090560913,-3.18,1.08,1.13,3.54
20.470640897750854,-4.11,1.26,0.81,4.37
20.47309708595276,-4.94,1.26,0.1,5.09
20.475368976593018,-5.55,0.87,-0.82,5.67
20.56858992576599,-5.42,-0.06,-0.65,5.45
20.570135831832886,-4.4,-0.95,0.12,4.5
20.571272134780884,-3.09,-1.5,0.57,3.48
20.58327889442444,-2.19,-2.02,0.99,3.13
20.58489203453064,-2.1,-2.72,1.52,3.75
20.58749294281006,-2.67,-3.45,1.78,4.71
20.590008974075317,-3.74,-4.03,1.63,5.73
20.59243893623352,-4.38,-4.29,0.99,6.21
20.595001935958862,-4.75,-4.25,0.88,6.43
20.597856044769287,-5.23,-4.14,1.36,6.8
20.689594984054565,-5.92,-4.27,1.88,7.53
20.691153049468994,-6.78,-4.53,2.02,8.4
20.69232702255249,-7.61,-4.75,2.4,9.28
20.69505500793457,-8.08,-5.06,2.65,9.89
20.697736978530884,-8.14,-5.74,2.5,10.26
20.698877096176147,-7.99,-6.95,1.96,10.76
20.718019008636475,-9.13,-8.09,2.36,12.42
20.71933913230896,-11.44,-9.0,3.59,14.99
20.721856832504272,-11.63,-8.41,0.93,14.38
20.72453284263611,-10.48,-7.67,-1.74,13.1
20.817572832107544,-9.36,-6.83,-2.31,11.81
20.8191921710968,-7.7,-6.19,-2.35,10.15
20.820329904556274,-5.71,-5.8,-2.32,8.46
20.82317304611206,-4.11,-5.64,-0.67,7.01
20.825673818588257,-3.67,-5.78,2.63,7.33
20.828163862228394,-4.31,-5.37,4.12,8.02
20.831138849258423,-3.95,-3.74,0.25,5.44
20.832228899002075,-3.11,-1.71,-3.2,4.77
20.850944995880127,-2.95,-0.21,-1.46,3.29
20.852317094802856,-4.21,0.33,1.96,4.65
20.94520592689514,-6.17,0.68,3.69,7.22
20.946829080581665,-6.8,1.35,3.55,7.78
20.947953939437866,-6.49,2.58,2.95,7.58
20.94972801208496,-6.13,3.97,2.61,7.75
20.952275037765503,-5.68,5.01,2.59,8.0
20.954782962799072,-5.04,5.59,2.64,7.97
20.957293033599854,-4.9,5.85,2.58,8.05
20.95984697341919,-5.24,5.77,2.44,8.16
20.962302923202515,-5.81,5.2,2.37,8.14
20.964783906936646,-6.25,4.6,2.67,8.2
21.055940866470337,-6.01,3.98,2.59,7.65
21.0575110912323,-4.78,3.3,2.3,6.24
21.058687925338745,-3.35,2.57,1.83,4.6
21.06165909767151,-2.3,2.04,1.18,3.29
21.064380884170532,-1.18,1.24,0.18,1.72
21.066356897354126,-0.29,0.49,-0.5,0.75
21.083313941955566,0.38,-0.42,-0.57,0.8
21.08461904525757,0.41,-1.16,-0.51,1.33
21.087217092514038,1.35,-2.8,-1.28,3.36
21.08982801437378,4.12,-6.18,-3.39,8.16
21.18358016014099,7.25,-9.84,-5.55,13.42
21.18505311012268,9.56,-10.7,-6.52,15.76
21.18619704246521,11.28,-8.97,-7.96,16.46
21.187952041625977,12.96,-6.98,-10.42,18.03
21.19046187400818,13.5,-4.95,-11.05,18.13
21.1929669380188,12.69,-3.81,-8.8,15.9
21.195491075515747,11.1,-4.18,-5.47,13.06
21.197972059249878,10.08,-5.65,-4.55,12.41
21.19904899597168,9.69,-5.8,-5.39,12.51
21.23445200920105,9.31,-4.85,-5.04,11.64
21.324934005737305,8.76,-4.06,-3.43,10.24
21.32658314704895,7.94,-2.91,-2.82,8.91
21.327762842178345,7.53,-2.57,-3.14,8.55
21.33070397377014,7.54,-2.45,-2.72,8.38
21.331820011138916,7.83,-2.05,-2.71,8.53
21.33466410636902,7.54,-2.07,-3.39,8.52
21.337172031402588,7.4,-2.0,-4.7,8.99
21.33967900276184,6.75,-1.6,-6.43,9.45
21.342160940170288,1.82,-1.66,-2.83,3.75
21.344665050506592,-9.33,-2.44,9.8,13.74
21.43569588661194,-10.24,-5.26,10.69,15.7
21.437100172042847,1.53,-7.64,-0.82,7.83
21.439164876937866,5.73,-6.73,-1.83,9.02
21.441810846328735,4.62,-3.57,1.05,5.93
21.444249868392944,3.24,-1.39,0.25,3.53
21.44666314125061,2.09,-0.08,-3.3,3.9
21.447726011276245,3.68,-0.25,-5.66,6.75
21.449838876724243,5.82,-1.04,-4.35,7.34
21.45232605934143,6.85,-0.47,-2.24,7.22
21.45482301712036,7.23,0.67,-1.43,7.4
21.457319974899292,6.54,1.41,-2.72,7.22
21.549299001693726,5.76,1.2,-4.23,7.24
21.550835847854614,5.52,0.26,-4.16,6.91
21.551923036575317,5.27,-0.9,-2.81,6.03
21.554680109024048,4.76,-1.94,-1.65,5.39
21.557080030441284,4.09,-2.62,-0.69,4.9
21.559566974639893,2.74,-2.64,0.28,3.81
21.562108039855957,0.26,-1.77,1.17,2.13
21.564708948135376,-2.49,-0.5,1.2,2.8
21.565773010253906,-4.38,0.41,0.19,4.4
21.58529496192932,-4.47,0.82,-1.11,4.67
21.676687002182007,-3.07,0.87,-1.23,3.41
21.67820715904236,-1.41,0.72,-0.53,1.66
21.679438829421997,0.13,0.36,-0.64,0.74
21.682278871536255,1.77,-0.24,-1.37,2.25
21.68351912498474,3.28,-0.85,-1.57,3.73
21.700259923934937,4.07,-0.95,-0.88,4.27
21.701815843582153,3.81,-1.14,-0.36,3.99
21.704327821731567,2.51,-0.97,-0.54,2.74
21.70679783821106,1.11,-0.99,-0.04,1.48
21.709311962127686,-0.52,-0.62,0.46,0.93
21.801309823989868,-2.1,0.19,0.06,2.1
21.80282187461853,-3.3,1.04,-0.46,3.49
21.803919076919556,-2.81,0.86,-0.48,2.97
21.817922830581665,-1.89,0.87,-0.33,2.1
21.81935715675354,-1.22,0.65,-0.11,1.38
21.82202696800232,-0.97,0.04,0.39,1.04
21.824578046798706,-0.5,-0.51,0.14,0.72
21.82709288597107,-0.47,-0.64,0.41,0.89
21.829658031463623,-0.49,-0.03,0.44,0.65
21.832203149795532,-0.45,0.27,-0.27,0.59
21.92407202720642,-0.92,0.57,-0.48,1.18
21.925609827041626,-1.57,0.6,0.13,1.68
21.926798105239868,-2.07,0.42,0.81,2.26
21.929728031158447,-2.37,0.0,0.96,2.55
21.932122945785522,-2.53,-0.4,0.55,2.61
21.93323588371277,-2.51,-0.64,0.44,2.62
21.95126700401306,-2.22,-0.81,0.08,2.36
21.952502965927124,-1.87,-1.02,-0.44,2.17
21.955078840255737,-1.76,-1.11,-0.23,2.09
21.957597017288208,-1.79,-1.23,0.05,2.17
22.048529863357544,-2.49,-1.36,-0.31,2.85
22.050115823745728,-3.52,-1.43,-0.97,3.92
22.051260948181152,-4.36,-1.65,-0.54,4.69
22.05410885810852,-4.68,-1.89,-0.03,5.04
22.05664300918579,-4.53,-2.1,0.37,5.0
22.059144973754883,-4.36,-2.32,1.19,5.08
22.061588048934937,-4.36,-2.73,1.73,5.42
22.063809156417847,-4.66,-3.17,1.43,5.81
22.06588101387024,-5.44,-3.92,0.9,6.76
22.068219900131226,-6.6,-4.61,1.37,8.16
22.158277988433838,-7.54,-5.14,2.11,9.36
22.15985417366028,-8.3,-5.56,1.38,10.08
22.160938024520874,-8.93,-6.31,0.32,10.93
22.163758993148804,-10.45,-7.3,0.4,12.75
22.164860010147095,-12.4,-7.93,1.44,14.78
22.16689705848694,-11.97,-7.77,1.16,14.31
22.169442892074585,-9.38,-6.8,-1.97,11.75
22.172005891799927,-6.55,-6.25,-4.24,9.99
22.17442488670349,-3.88,-5.98,-4.47,8.41
22.1769540309906,-1.86,-5.84,-2.67,6.68
22.26690411567688,-0.92,-5.47,0.38,5.55
22.26857590675354,-1.6,-4.37,2.09,5.1
22.269827127456665,-3.48,-2.35,1.7,4.53
22.284785985946655,-3.78,-0.45,-0.15,3.8
22.286303997039795,-2.7,1.48,-2.55,3.99
22.28884482383728,-2.47,3.63,-2.21,4.91
22.29137110710144,-3.47,5.04,0.02,6.11
22.29389786720276,-5.19,5.3,2.31,7.76
22.29632306098938,-7.08,5.5,3.83,9.74
22.29897904396057,-8.28,5.96,4.6,11.19
22.38861894607544,-8.27,6.49,4.78,11.54
22.39018702507019,-7.44,6.63,4.65,10.99
22.39136004447937,-6.76,6.32,4.36,10.22
22.394284963607788,-6.87,5.81,4.29,9.96
22.39679789543152,-7.8,4.89,4.77,10.36
22.399224996566772,-8.8,3.67,5.37,10.94
22.40030598640442,-8.74,1.94,5.57,10.54
22.42023801803589,-6.97,-0.07,5.15,8.66
22.42169213294983,-4.17,-2.0,4.31,6.32
22.42414402961731,-1.61,-3.87,3.53,5.47
22.426632165908813,0.67,-5.25,2.97,6.06
22.51785111427307,2.54,-5.73,2.83,6.87
22.51941704750061,3.85,-4.89,3.17,6.98
22.52051091194153,4.85,-3.88,2.96,6.88
22.535538911819458,5.34,-3.17,2.03,6.53
22.536829948425293,5.07,-3.23,1.92,6.31
22.53970694541931,4.87,-3.76,2.08,6.49
22.542157888412476,4.44,-4.7,1.53,6.64
22.5446560382843,3.27,-5.87,1.01,6.79
22.54712414741516,2.04,-7.42,0.76,7.73
22.549393892288208,1.4,-8.32,-0.09,8.43
22.63840413093567,2.14,-7.69,-1.15,8.06
22.63998293876648,3.93,-6.85,-1.69,8.07
22.641163110733032,6.42,-6.32,-1.94,9.21
22.644016981124878,8.22,-5.96,-2.11,10.37
22.646589040756226,9.43,-5.36,-1.67,10.97
22.64893412590027,10.35,-4.97,-1.67,11.6
22.649935007095337,11.27,-3.64,-1.55,11.94
22.669913053512573,11.36,-2.42,-0.83,11.64
22.671301126480103,9.93,-1.24,-0.49,10.01
22.67382311820984,8.08,-0.67,-1.26,8.2
22.764950037002563,7.28,-1.07,-1.31,7.47
22.766513109207153,7.95,-1.52,-0.24,8.09
22.767616033554077,8.46,-3.34,0.34,9.1
22.770528078079224,8.28,-3.12,-0.09,8.84
22.772827863693237,8.27,-2.76,-1.14,8.79
22.775331020355225,7.02,-2.36,-1.13,7.49
22.777838945388794,5.34,-1.07,-0.25,5.45
22.780383825302124,2.06,-0.72,0.13,2.18
22.78270411491394,-4.54,-0.75,1.81,4.94
22.783798933029175,-9.35,-0.58,4.41,10.35
22.88973593711853,-5.37,-2.42,4.29,7.28
22.891091108322144,1.33,-5.65,2.43,6.29
22.892264127731323,3.5,-7.99,-0.03,8.72
22.895166158676147,2.53,-7.69,-1.5,8.23
22.897507905960083,-0.05,-4.87,-0.47,4.89
22.89857792854309,-1.42,-1.73,-0.38,2.27
22.90068507194519,0.27,0.62,-2.35,2.44
22.903162002563477,2.85,1.8,-3.0,4.51
22.90573287010193,4.7,1.79,-2.18,5.48
22.90822196006775,6.06,1.5,-2.7,6.8
22.99941897392273,6.9,1.42,-4.52,8.36
23.00098705291748,7.77,0.79,-5.96,9.82
23.002086877822876,8.97,-0.68,-4.51,10.06
23.005022048950195,9.17,-2.14,-0.85,9.45
23.00752902030945,7.09,-2.66,1.19,7.66
23.010031938552856,3.63,-2.27,1.05,4.4
23.01254916191101,0.55,-1.68,0.68,1.89
23.01557993888855,-1.94,-1.29,0.89,2.49
23.016644954681396,-3.67,-0.61,0.62,3.77
23.035020112991333,-4.01,-0.1,-0.45,4.03
23.125291109085083,-2.81,0.28,-1.33,3.12
23.126877069473267,-1.02,0.56,-1.32,1.75
23.12804102897644,0.56,0.15,-1.02,1.17
23.130945920944214,1.77,-0.09,-1.11,2.09
23.132054090499878,2.47,-0.34,-1.08,2.71
23.133949041366577,2.69,-0.28,-0.76,2.8
23.136481046676636,2.4,-0.09,-1.11,2.64
23.138761043548584,1.5,0.03,-0.98,1.79
23.141194105148315,0.61,-0.02,-0.67,0.9
23.143696069717407,-0.06,-0.13,-0.64,0.65
23.23398494720459,-0.06,-0.29,-0.82,0.87
23.23539710044861,-0.07,0.29,-0.75,0.8
23.236501932144165,-0.62,0.64,-0.92,1.28
23.252032995224,-1.29,0.16,-0.5,1.39
23.25353217124939,-1.37,-0.11,-0.16,1.38
23.25602889060974,-1.12,-0.74,-0.12,1.34
23.258584022521973,-0.22,-1.11,0.19,1.14
23.261089086532593,0.01,-0.72,0.43,0.83
23.26366901397705,-0.4,-0.28,0.65,0.81
23.266216039657593,-0.8,-0.29,1.05,1.35
23.354138135910034,-1.58,-0.38,1.5,2.21
23.35571599006653,-2.82,-0.01,1.71,3.29
23.356925010681152,-4.23,0.7,1.14,4.43
23.359803915023804,-5.35,1.24,0.57,5.52
23.36232900619507,-5.81,1.37,0.42,5.98
23.364747047424316,-5.42,0.95,0.37,5.51
23.365800142288208,-4.6,0.23,0.28,4.61
23.36902904510498,-3.85,-0.56,0.49,3.92
23.371613025665283,-3.03,-1.37,0.27,3.33
23.374114990234375,-2.36,-2.29,0.18,3.29
23.376601934432983,-2.1,-3.3,1.26,4.1
23.466129064559937,-2.02,-3.86,1.9,4.75
23.46772599220276,-2.44,-3.72,2.0,4.87
23.46881604194641,-3.32,-3.2,2.04,5.04
23.471730947494507,-4.28,-3.01,2.22,5.68
23.474225997924805,-5.17,-3.15,2.48,6.54
23.476743936538696,-5.75,-3.57,2.12,7.09
23.479223012924194,-6.11,-4.37,1.68,7.69
23.481619119644165,-6.56,-5.52,1.72,8.74
23.482653856277466,-7.06,-6.79,1.66,9.93
23.485771894454956,-7.14,-7.95,1.39,10.77
23.57509684562683,-7.85,-8.91,2.38,12.11
23.576653957366943,-8.82,-9.04,3.05,12.99
23.577757120132446,-7.81,-8.8,2.47,12.02
23.58064293861389,-6.12,-7.94,-0.69,10.04
23.58302903175354,-5.16,-6.9,-2.43,8.95
23.584177017211914,-4.3,-6.12,-2.89,8.01
23.60130000114441,-3.84,-5.55,-2.49,7.19
23.602917909622192,-3.64,-5.25,-0.3,6.39
23.605398893356323,-4.28,-4.79,3.21,7.18
23.60791802406311,-5.77,-3.61,5.29,8.62
23.697885036468506,-5.55,-1.98,3.14,6.67
23.699479818344116,-4.5,-0.27,-0.86,4.58
23.70059895515442,-4.66,1.32,-1.08,4.96
23.703470945358276,-6.16,2.17,2.21,6.89
23.70592498779297,-8.3,2.53,5.37,10.2
23.708429098129272,-9.6,2.82,6.16,11.74
23.710922956466675,-9.68,3.3,5.39,11.56
23.71342396736145,-9.22,4.03,4.91,11.19
23.715861082077026,-8.37,4.1,4.93,10.54
23.716912984848022,-7.32,3.5,4.8,9.42
23.823434114456177,-6.76,2.79,4.57,8.62
23.82475996017456,-6.7,1.86,4.66,8.37
23.825935125350952,-6.64,0.67,4.9,8.27
23.82888102531433,-5.87,-0.36,5.05,7.75
23.831391096115112,-4.42,-1.32,4.82,6.67
23.83246111869812,-2.47,-1.78,3.9,4.94
23.83458399772644,-0.67,-1.86,3.03,3.61
23.837018966674805,1.07,-1.86,2.26,3.11
23.839289903640747,1.99,-1.48,1.9,3.12
23.84183096885681,2.31,-1.11,1.44,2.93
23.931535959243774,2.44,-1.27,1.24,3.01
23.93309187889099,2.75,-2.08,0.41,3.47
23.93418288230896,3.88,-3.75,-0.46,5.41
23.93701696395874,4.8,-5.75,-1.42,7.62
23.939553022384644,5.67,-7.1,-2.31,9.37
23.941983938217163,6.52,-7.71,-3.2,10.59
23.944474935531616,6.77,-7.38,-3.91,10.75
23.94699788093567,6.33,-5.81,-4.78,9.83
23.949395895004272,5.21,-4.02,-5.98,8.89
23.95050311088562,4.15,-2.9,-6.68,8.38
24.057010889053345,4.97,-3.66,-6.62,9.05
24.058366060256958,8.33,-5.54,-7.26,12.36
24.059535026550293,11.04,-5.32,-7.94,14.6
24.062443017959595,12.9,-4.0,-8.32,15.86
24.06471610069275,14.3,-2.74,-8.68,16.95
24.065766096115112,14.71,-1.5,-9.21,17.42
24.067888975143433,14.12,-0.37,-9.47,17.0
24.070364952087402,13.22,-0.3,-9.34,16.18
24.07287907600403,12.17,-1.09,-9.08,15.22
24.07537293434143,10.86,-1.84,-9.37,14.46
24.16446805000305,8.06,-3.46,-9.53,12.95
24.166075944900513,-2.33,-6.28,5.46,8.64
24.167174100875854,-13.66,-10.63,17.71,24.76
24.169999837875366,-4.2,-13.67,-4.35,14.94
24.172416925430298,0.89,-8.81,-5.18,10.25
24.17492985725403,1.86,-2.33,3.2,4.37
24.177438020706177,3.32,0.7,1.57,3.73
24.179938077926636,4.06,2.99,-3.25,5.99
24.184175968170166,5.83,3.14,-4.67,8.1
24.185452938079834,8.42,0.63,-4.14,9.4
24.289026975631714,9.92,-1.18,-3.77,10.67
24.290436029434204,10.62,-1.81,-3.26,11.25
24.291571855545044,9.72,-2.13,-3.19,10.44
24.294586896896362,5.93,-1.53,-3.82,7.21
24.297138929367065,2.39,-0.55,-3.3,4.11
24.29958200454712,1.47,-0.68,-1.34,2.1
24.30086588859558,1.04,-1.51,0.37,1.87
24.319427013397217,-0.68,-1.72,0.96,2.08
24.32062315940857,-2.6,-1.08,0.18,2.82
24.321789026260376,-3.41,-0.26,-0.58,3.46
24.324429988861084,-2.72,0.27,-0.43,2.76
24.414757013320923,-1.11,0.34,-0.25,1.18
24.416259050369263,0.21,0.22,-0.51,0.59
24.417377948760986,0.54,0.47,-1.1,1.31
24.420156002044678,1.02,0.66,-1.72,2.1
24.42262101173401,1.66,0.43,-1.77,2.46
24.424980878829956,2.65,-0.01,-1.18,2.9
24.427427053451538,2.85,-0.19,-0.33,2.87
24.429761171340942,1.96,-0.13,-0.06,1.96
24.432180166244507,0.7,-0.08,-0.23,0.74
24.43332600593567,-0.62,0.07,-0.17,0.64
24.52497100830078,-1.27,0.12,-0.28,1.3
24.526728868484497,-1.33,0.0,-0.47,1.41
24.527873039245605,-1.14,0.17,-0.16,1.16
24.530702829360962,-0.55,0.0,0.08,0.55
24.532952070236206,-0.31,-0.04,-0.09,0.32
24.534053087234497,-0.31,0.02,-0.49,0.58
24.55314612388611,-0.89,0.3,-0.52,1.07
24.554582834243774,-0.35,0.18,-0.17,0.42
24.55698800086975,0.3,-0.38,0.26,0.54
24.559344053268433,0.38,-0.38,0.33,0.63
24.64917302131653,0.22,-0.57,0.31,0.68
24.650665998458862,-0.34,-0.83,0.47,1.01
24.651775121688843,-0.76,-0.66,0.52,1.13
24.654728174209595,-0.95,-0.42,0.15,1.04
24.657108068466187,-1.15,-0.14,-0.12,1.16
24.65953516960144,-1.51,0.22,0.02,1.52
24.661950826644897,-1.8,0.36,0.22,1.84
24.664337873458862,-2.17,0.59,-0.01,2.24
24.666749000549316,-2.91,0.9,0.02,3.04
24.667857885360718,-3.39,0.99,0.05,3.53
24.773283004760742,-3.26,0.69,-0.31,3.34
24.774604082107544,-2.71,-0.02,-0.83,2.83
24.77579402923584,-2.13,-0.78,-0.68,2.36
24.778608083724976,-1.75,-1.4,0.44,2.28
24.780998945236206,-1.52,-2.16,0.72,2.73
24.783552885055542,-1.82,-2.71,0.76,3.35
24.784713983535767,-2.38,-3.33,1.34,4.3
24.803035020828247,-3.06,-4.12,1.85,5.45
24.804267168045044,-3.61,-4.79,1.86,6.27
24.805436849594116,-3.82,-4.91,2.33,6.64
24.89403510093689,-4.03,-4.39,2.21,6.35
24.895503044128418,-4.37,-3.9,1.3,5.99
24.896605968475342,-4.79,-4.17,1.22,6.46
24.90009093284607,-5.24,-5.67,2.1,8.0
24.901288986206055,-6.07,-7.8,2.81,10.27
24.919914960861206,-7.37,-9.31,3.04,12.25
24.921162843704224,-7.9,-9.88,2.68,12.93
24.922343015670776,-6.89,-9.87,1.25,12.1
24.924940824508667,-6.33,-10.26,-1.26,12.12
24.927340030670166,-7.74,-8.08,-2.09,11.38
25.016486883163452,-9.59,-4.69,-2.84,11.04
25.01789402961731,-9.41,-3.4,-2.72,10.36
25.019006967544556,-7.97,-5.22,-1.5,9.64
25.021780967712402,-5.04,-7.6,-1.82,9.29
25.024176836013794,-1.96,-8.75,-2.43,9.29
25.0263409614563,0.28,-8.97,-4.42,10.0
25.028772115707397,0.52,-7.93,-3.74,8.78
25.031183004379272,-0.08,-6.27,-0.36,6.28
25.03364109992981,0.07,-5.13,0.41,5.14
25.034726858139038,1.36,-4.77,-1.38,5.14
25.13887906074524,3.16,-4.85,-2.5,6.3
25.140240907669067,4.61,-5.17,-1.87,7.17
25.141413927078247,4.39,-4.97,-0.64,6.66
25.144287824630737,1.8,-4.14,0.15,4.51
25.146798849105835,-1.3,-2.7,0.64,3.06
25.149885892868042,-2.91,-1.4,1.29,3.47
25.150983095169067,-3.72,-0.24,2.22,4.33
25.172006845474243,-4.2,1.01,3.57,5.6
25.173414945602417,-4.48,2.79,4.22,6.75
25.17613697052002,-4.44,4.91,4.03,7.75
25.265321969985962,-4.08,7.14,3.52,8.94
25.266856908798218,-3.99,9.36,2.82,10.55
25.267965078353882,-4.29,10.66,2.21,11.7
25.270827054977417,-4.57,10.48,1.73,11.56
25.273113012313843,-4.86,9.3,2.44,10.77
25.275516986846924,-4.14,7.91,2.99,9.41
25.278038024902344,-3.53,7.64,3.08,8.96
25.280544996261597,-2.78,7.91,2.33,8.7
25.283298015594482,-1.48,8.36,2.02,8.72
25.284364938735962,0.31,8.48,2.0,8.71
25.301636934280396,1.3,8.26,1.76,8.54
25.390257120132446,2.11,8.1,1.29,8.46
25.391860961914062,3.0,8.28,0.79,8.84
25.392931938171387,4.23,8.73,-0.15,9.7
25.395943880081177,5.71,9.12,-1.53,10.86
25.398203134536743,6.9,8.96,-2.82,11.65
25.40058398246765,8.07,8.07,-3.34,11.89
25.401674032211304,9.34,6.77,-3.6,12.08
25.41898202896118,10.18,5.73,-3.51,12.19
25.42059302330017,10.84,5.05,-3.81,12.55
25.42306900024414,11.05,4.74,-4.53,12.84
25.513088941574097,10.84,4.64,-4.84,12.74
25.51471209526062,10.61,4.47,-4.79,12.46
25.515825986862183,10.23,4.4,-4.38,11.96
25.51698398590088,9.82,4.21,-4.04,11.42
25.535745859146118,9.0,4.05,-3.57,10.49
25.537096977233887,7.48,4.16,-2.92,9.04
25.539642095565796,6.15,4.52,-3.54,8.41
25.54215097427368,4.81,4.46,-8.25,10.53
25.54465889930725,3.75,0.64,-8.84,9.62
25.547245979309082,4.08,-8.66,2.28,9.84
25.637156009674072,-0.69,-20.81,14.49,25.36
25.638535976409912,-7.64,-20.93,6.07,23.09
25.64050602912903,-4.93,-9.84,-6.68,12.87
25.64299201965332,2.42,-3.06,-8.83,9.65
25.64554715156555,7.18,-0.06,-2.66,7.65
25.648060083389282,6.09,3.74,2.3,7.5
25.650511980056763,2.02,7.13,-0.08,7.41
25.651612043380737,0.12,8.99,-2.59,9.35
25.66875386238098,1.26,7.43,-0.99,7.6
25.670384168624878,3.55,3.0,0.74,4.7
25.75960087776184,3.77,-0.26,0.3,3.79
25.761178016662598,2.07,-2.39,-0.72,3.24
25.762264013290405,0.39,-4.51,0.1,4.52
25.76520609855652,-0.43,-5.7,0.99,5.8
25.76763105392456,-0.12,-4.57,0.21,4.57
25.76872992515564,0.57,-1.86,-0.33,1.97
25.785754919052124,0.95,0.31,-0.06,1.0
25.787288904190063,0.86,1.63,0.03,1.84
25.7897789478302,0.93,2.44,-0.48,2.65
25.792288064956665,1.17,2.24,-0.64,2.6
25.881688833236694,1.3,1.46,-0.42,1.99
25.883186101913452,1.31,0.41,-0.17,1.38
25.8842990398407,1.4,-0.65,-0.42,1.59
25.887269973754883,0.84,-1.44,-0.49,1.73
25.889750003814697,0.26,-1.72,-0.33,1.77
25.892256021499634,-0.04,-1.44,-0.6,1.56
25.894763946533203,-0.32,-0.84,-0.93,1.29
25.897266149520874,-0.35,-0.14,-0.74,0.83
25.90022897720337,-0.29,0.15,-0.51,0.6
25.90133500099182,-0.45,0.13,-0.26,0.53
26.004576921463013,-0.71,0.03,-0.27,0.76
26.005916833877563,-0.7,0.07,-0.19,0.72
26.007073163986206,-0.56,0.27,0.14,0.63
26.010046005249023,-0.33,0.46,0.31,0.64
26.012595891952515,-0.41,0.62,0.34,0.81
26.01504111289978,-0.69,0.51,0.15,0.87
26.017470121383667,-0.94,0.16,0.24,0.98
26.018556833267212,-1.07,0.05,0.35,1.12
26.03532099723816,-0.83,0.03,0.08,0.83
26.03686785697937,-0.42,0.15,0.29,0.53
26.12554383277893,-0.39,0.17,0.51,0.66
26.127169847488403,-0.85,0.11,0.03,0.85
26.128269910812378,-1.32,0.17,-0.58,1.45
26.131251096725464,-1.27,0.25,-0.72,1.48
26.133726835250854,-0.66,0.26,-0.51,0.87
26.134846925735474,-0.11,0.01,-0.35,0.36
26.155790090560913,-0.19,-0.52,-0.22,0.59
26.157171964645386,-0.39,-1.09,0.09,1.16
26.159845113754272,-0.36,-1.57,-0.08,1.61
26.162431001663208,-0.55,-1.87,-0.23,1.96
26.24995994567871,-1.01,-1.97,-0.1,2.21
26.251681089401245,-1.31,-1.85,-0.67,2.36
26.25279688835144,-1.19,-1.75,-1.37,2.52
26.271734952926636,-0.49,-1.77,-1.28,2.23
26.273000955581665,0.5,-2.16,-0.29,2.23
26.27532196044922,1.25,-2.7,-0.27,2.98
26.277825117111206,1.49,-3.29,-0.5,3.64
26.28036093711853,1.17,-4.1,0.3,4.27
26.282946825027466,0.63,-4.98,0.58,5.05
26.284157037734985,0.11,-5.75,1.08,5.85
26.287028074264526,-0.53,-6.64,1.8,6.9
26.374722957611084,-1.49,-7.31,2.64,7.91
26.376270055770874,-2.32,-6.91,2.2,7.61
26.377339124679565,-3.75,-7.23,1.13,8.22
26.380272150039673,-4.57,-10.1,0.56,11.09
26.382736921310425,-1.68,-11.69,1.19,11.86
26.38381314277649,-0.26,-6.96,0.37,6.97
26.38691210746765,-3.57,1.58,-2.62,4.7
26.389325857162476,-7.51,5.03,-3.66,9.75
26.39171004295349,-11.7,3.02,-3.01,12.45
26.394219160079956,-13.56,-3.17,-5.12,14.83
26.482179880142212,-12.59,-8.36,-5.9,16.22
26.483747959136963,-7.16,-9.78,-3.3,12.56
26.484883069992065,-1.89,-9.49,-0.27,9.68
26.487740993499756,1.14,-9.44,-3.01,9.97
26.49024987220764,2.84,-8.61,-7.64,11.85
26.492767095565796,1.29,-6.83,-5.84,9.07
26.495312929153442,-1.13,-6.28,-1.6,6.57
26.49777913093567,-1.82,-6.57,-0.81,6.86
26.500614881515503,-1.1,-6.47,-1.21,6.67
26.50170588493347,-0.05,-6.28,-0.32,6.28
26.606143951416016,0.33,-5.51,1.51,5.72
26.6074960231781,-0.38,-4.02,3.08,5.07
26.60869598388672,-2.13,-2.0,3.6,4.63
26.611626863479614,-3.63,-0.36,3.86,5.31
26.613955974578857,-4.69,0.65,4.41,6.47
26.616328954696655,-5.43,1.47,5.38,7.78
26.61740493774414,-5.61,2.43,6.52,8.93
26.620440006256104,-5.59,3.22,7.35,9.77
26.62294888496399,-5.87,3.78,7.44,10.2
26.625514030456543,-6.57,3.88,7.07,10.4
26.714473962783813,-7.47,3.5,7.37,11.06
26.71606707572937,-8.38,2.86,8.07,11.98
26.71716594696045,-8.67,1.94,8.04,11.98
26.718243837356567,-8.03,1.26,7.55,11.09
26.72087001800537,-6.77,0.62,7.02,9.77
26.723374128341675,-5.55,0.13,7.31,9.17
26.72587513923645,-4.12,-0.54,7.97,8.98
26.728286027908325,-2.42,-1.13,7.53,7.98
26.730809926986694,-0.82,-1.32,6.57,6.75
26.733092069625854,0.43,-1.35,6.39,6.54
26.820770025253296,1.29,-1.22,6.65,6.88
26.822314023971558,1.86,-0.61,5.94,6.25
26.823477029800415,2.68,0.17,4.57,5.3
26.826380014419556,3.35,1.41,3.06,4.75
26.828650951385498,3.29,2.42,1.96,4.53
26.83114790916443,2.39,3.24,1.78,4.4
26.834094047546387,1.49,3.61,2.41,4.58
26.83522915840149,1.0,3.24,3.13,4.61
26.85486912727356,1.87,2.48,2.88,4.23
26.856335878372192,3.2,1.72,2.4,4.35
26.944057941436768,4.0,1.03,1.68,4.45
26.945576906204224,4.32,0.3,1.58,4.6
26.946720838546753,4.43,-0.21,1.74,4.76
26.949453115463257,5.31,-0.45,0.05,5.32
26.950597047805786,6.12,-0.17,-1.32,6.26
26.952627897262573,6.85,0.28,-1.72,7.06
26.95502209663391,7.42,0.52,-1.44,7.57
26.95754885673523,8.02,0.44,-0.65,8.05
26.96004891395569,9.0,-0.11,-0.66,9.02
26.962537050247192,9.98,-0.52,-0.63,10.01
27.050341844558716,10.16,-0.62,-0.16,10.18
27.051759004592896,9.22,-0.38,0.51,9.24
27.052849054336548,7.98,-0.22,0.54,8.0
27.069682836532593,7.43,0.05,-0.34,7.43
27.07140803337097,6.86,0.67,-0.63,6.92
27.073702096939087,5.95,1.54,-0.83,6.2
27.076367139816284,5.06,2.83,-1.27,5.93
27.078675031661987,4.68,4.29,-2.92,6.98
27.08126711845398,4.2,5.79,-5.91,9.27
27.083600997924805,2.97,4.48,-8.66,10.19
27.16965413093567,-0.5,-1.77,-8.83,9.01
27.171250104904175,-4.82,-9.62,0.53,10.77
27.172445058822632,-4.15,-16.45,15.5,22.97
27.175030946731567,4.19,-14.44,11.67,19.03
27.177482843399048,9.56,-6.23,-3.03,11.8
27.180076837539673,10.27,-0.17,-6.15,11.97
27.18263602256775,6.96,3.04,-0.39,7.6
27.185062170028687,2.56,4.54,0.72,5.26
27.18618893623352,0.27,5.81,-1.79,6.08
27.20329999923706,0.82,5.93,-3.23,6.8
27.20481514930725,2.23,3.87,-1.7,4.77
27.29206895828247,2.49,0.65,0.64,2.65
27.293766021728516,2.24,-2.92,-0.99,3.81
27.294872999191284,2.17,-6.2,-2.98,7.21
27.297847986221313,2.19,-7.24,-2.48,7.96
27.300967931747437,2.37,-4.94,-0.94,5.55
27.302058935165405,2.09,-1.9,-0.57,2.88
27.320044994354248,1.58,0.5,-1.55,2.26
27.321287870407104,1.06,2.08,-2.04,3.1
27.32390594482422,0.57,3.03,-1.82,3.58
27.326246976852417,0.41,3.12,-1.5,3.48
27.41244101524353,0.57,2.36,-1.4,2.8
27.41396999359131,0.78,0.96,-1.19,1.71
27.4150869846344,1.01,-0.49,-0.64,1.29
27.417963981628418,1.06,-1.71,-0.28,2.03
27.419301986694336,0.97,-2.37,-0.27,2.57
27.436693906784058,0.81,-2.27,-0.22,2.42
27.438189029693604,0.87,-1.69,-0.35,1.93
27.44076704978943,1.05,-1.28,-0.41,1.7
27.443156003952026,1.48,-1.17,0.29,1.9
27.445727109909058,1.27,-0.68,0.44,1.5
27.531585931777954,0.4,0.47,-0.58,0.84
27.533157110214233,-0.61,1.39,-1.37,2.04
27.534273862838745,-1.67,1.54,-1.3,2.61
27.536847829818726,-2.15,1.23,-0.9,2.63
27.539378881454468,-1.87,0.48,-0.42,1.97
27.541899919509888,-1.12,-0.46,-0.17,1.22
27.544421911239624,-0.26,-0.83,0.33,0.93
27.546937942504883,0.48,-0.7,0.68,1.08
27.54949116706848,0.11,-0.1,0.46,0.48
27.551894903182983,-0.74,0.92,-0.05,1.18
27.636719942092896,-1.07,1.41,0.06,1.77
27.638278007507324,-0.55,1.38,0.31,1.51
27.639498949050903,-0.08,1.23,0.5,1.33
27.642413854599,-0.11,0.94,0.06,0.94
27.644962072372437,-0.65,0.52,-0.57,1.0
27.647397994995117,-1.64,-0.1,-0.45,1.7
27.649757146835327,-2.33,-0.77,0.12,2.45
27.650863885879517,-2.28,-1.27,0.28,2.62
27.65319514274597,-1.9,-1.46,0.2,2.4
27.65560507774353,-1.18,-1.53,-0.59,2.02
27.74133801460266,-0.66,-1.55,-0.07,1.68
27.74292492866516,-0.42,-1.61,0.25,1.68
27.743916988372803,-0.04,-1.74,-0.15,1.74
27.746665000915527,0.56,-1.99,0.04,2.06
27.749152898788452,0.82,-2.39,0.66,2.61
27.751621961593628,0.36,-3.06,1.05,3.25
27.75272297859192,-0.8,-3.66,1.4,3.99
27.770763158798218,-2.14,-4.34,1.94,5.21
27.77201199531555,-3.26,-5.22,2.31,6.57
27.77471399307251,-3.37,-6.2,3.17,7.73
27.86102604866028,-3.1,-7.08,3.73,8.58
27.862555027008057,-3.23,-8.81,3.13,9.89
27.863647937774658,-3.16,-10.96,2.82,11.74
27.866481065750122,-2.37,-11.57,3.71,12.37
27.867576837539673,-2.61,-7.9,2.3,8.63
27.869871854782104,-4.9,-1.31,-1.75,5.36
27.87237286567688,-8.21,2.05,-4.07,9.38
27.87488293647766,-12.31,-0.46,-2.79,12.63
27.877383947372437,-12.54,-7.04,-3.92,14.9
27.879966974258423,-8.11,-12.02,-3.22,14.85
27.965219974517822,-2.99,-12.35,-1.12,12.75
27.96668004989624,-0.43,-11.11,-1.75,11.25
27.967787981033325,0.11,-11.0,-1.39,11.08
27.97022294998169,0.76,-11.41,-1.54,11.53
27.972764015197754,0.93,-11.06,-3.49,11.63
27.975224018096924,0.93,-10.12,-3.91,10.88
27.977511167526245,1.27,-9.15,-2.29,9.51
27.980072021484375,1.12,-8.73,-1.2,8.88
27.982546091079712,0.55,-8.23,-0.73,8.28
27.98507285118103,-1.2,-6.88,0.48,7.0
28.069506883621216,-4.28,-4.65,2.46,6.78
28.071046113967896,-7.18,-2.31,4.71,8.89
28.07228398323059,-9.31,-0.16,6.25,11.21
28.075123071670532,-10.51,2.16,6.73,12.66
28.07734704017639,-10.88,4.75,7.11,13.83
28.079800844192505,-10.67,7.11,7.33,14.76
28.08232617378235,-10.19,8.63,7.1,15.12
28.084648847579956,-9.35,9.12,6.61,14.63
28.085724115371704,-8.44,9.22,5.86,13.8
28.105679035186768,-7.86,9.36,5.39,13.35
28.10703206062317,-7.66,9.35,5.66,13.34
28.193998098373413,-7.36,9.07,6.38,13.3
28.1955668926239,-6.26,8.56,6.02,12.19
28.19668984413147,-4.44,8.07,4.41,10.21
28.199604988098145,-2.37,7.88,3.66,9.0
28.201947927474976,0.08,8.02,3.53,8.76
28.2030770778656,2.35,8.13,2.15,8.73
28.219937086105347,4.34,7.88,0.48,9.0
28.221524953842163,6.03,7.26,-0.39,9.44
28.224014043807983,8.29,6.54,-1.83,10.71
28.226569890975952,10.71,6.6,-3.54,13.06
28.31326985359192,12.47,7.19,-5.3,15.33
28.314713954925537,13.73,7.38,-7.06,17.11
28.315847158432007,14.31,6.86,-7.74,17.65
28.31882095336914,14.13,6.25,-7.44,17.14
28.319998025894165,13.85,5.76,-6.67,16.41
28.33826494216919,13.51,5.41,-5.72,15.63
28.339537858963013,13.29,5.28,-4.01,14.85
28.342134952545166,15.54,6.41,-9.49,19.3
28.34467911720276,17.21,4.65,-21.26,27.74
28.3473060131073,15.47,-4.31,-11.39,19.68
28.433300018310547,3.74,-16.9,22.83,28.64
28.434941053390503,-10.79,-24.02,11.16,28.59
28.436084032058716,-13.44,-15.94,-10.06,23.14
28.455580949783325,-5.26,-4.42,-8.87,11.21
28.45684003829956,4.65,0.07,-2.9,5.48
28.45939803123474,8.01,3.12,3.92,9.44
28.461894035339355,4.11,5.66,4.54,8.33
28.464411973953247,-1.08,7.75,0.87,7.87
28.46694803237915,-1.29,7.22,-2.1,7.62
28.46919298171997,1.81,3.77,-0.85,4.26
28.553706884384155,4.21,0.56,0.64,4.29
28.55526304244995,4.8,-1.96,-0.39,5.19
28.55644202232361,3.94,-4.67,-1.04,6.19
28.559335947036743,2.34,-6.09,-0.07,6.52
28.561821937561035,1.1,-4.94,0.66,5.1
28.564371824264526,0.81,-2.19,0.06,2.33
28.566789865493774,0.82,0.25,-1.24,1.5
28.56920599937439,0.93,1.11,-1.8,2.31
28.57032299041748,0.11,1.83,-1.29,2.24
28.588263988494873,-0.24,1.45,-2.25,2.68
28.67311692237854,-0.41,0.31,-1.99,2.05
28.674685955047607,-0.58,-0.8,-1.05,1.44
28.675781965255737,-0.67,-1.47,-0.85,1.82
28.678786993026733,-0.6,-1.17,-0.93,1.61
28.681278944015503,-0.27,-0.26,-0.54,0.65
28.683845043182373,0.27,0.48,0.4,0.68
28.684926986694336,0.83,0.75,1.08,1.55
28.687520027160645,0.67,0.77,1.29,1.64
28.689377069473267,0.11,0.46,1.09,1.18
28.691921949386597,-0.32,-0.03,1.17,1.21
28.77684998512268,-0.47,-0.27,1.48,1.57
28.77840304374695,-0.22,-0.2,1.39,1.42
28.779485940933228,0.1,0.18,0.88,0.9
28.782283067703247,0.28,0.34,0.23,0.49
28.784966945648193,0.35,0.18,-0.07,0.39
28.786967039108276,-0.14,-0.02,0.68,0.69
28.80362105369568,-1.5,0.57,0.46,1.66
28.805135011672974,-2.64,1.11,-1.02,3.04
28.80766987800598,-3.26,1.29,-1.4,3.77
28.81027913093567,-3.18,0.91,-1.04,3.46
28.89681887626648,-2.34,0.05,-0.12,2.34
28.89841103553772,-1.22,-0.63,0.31,1.4
28.899559020996094,-0.39,-1.06,0.72,1.33
28.90256404876709,0.11,-1.47,0.8,1.67
28.903764009475708,0.21,-1.5,0.03,1.51
28.92096781730652,0.22,-1.45,-0.65,1.6
28.922296047210693,-0.1,-1.7,-0.48,1.76
28.92504596710205,-0.49,-2.03,-0.03,2.08
28.927425146102905,-0.56,-2.45,-0.24,2.52
28.930070161819458,-0.75,-2.66,0.17,2.76
29.016312837600708,-1.26,-2.99,0.55,3.29
29.01784586906433,-1.62,-3.67,1.01,4.13
29.018964052200317,-1.79,-4.65,1.68,5.25
29.021857976913452,-2.05,-5.56,1.96,6.24
29.0242919921875,-2.8,-6.55,1.95,7.38
29.02671194076538,-3.47,-7.73,1.95,8.69
29.029003858566284,-2.86,-9.34,2.17,10.0
29.0314781665802,-0.83,-9.85,2.66,10.23
29.03398299217224,-0.97,-6.18,2.81,6.85
29.035054922103882,-3.03,-0.27,-0.58,3.09
29.037961959838867,-4.73,2.35,-3.16,6.15
29.12431001663208,-8.11,0.91,-2.86,8.64
29.12587809562683,-10.47,-3.91,-4.18,11.93
29.126986980438232,-7.7,-9.25,-6.21,13.54
29.12984800338745,-1.25,-12.77,-2.98,13.17
29.13238787651062,3.19,-13.31,-1.42,13.76
29.13533616065979,2.84,-12.22,-2.4,12.77
29.13644289970398,-0.23,-10.25,-1.32,10.33
29.155668020248413,-1.89,-8.76,-2.61,9.33
29.157094955444336,-2.52,-8.37,-2.95,9.22
29.159775018692017,-3.65,-8.26,-1.52,9.15
29.24668002128601,-4.23,-7.92,-0.63,9.0
29.24828791618347,-4.25,-7.28,0.26,8.43
29.249420881271362,-4.3,-6.15,1.4,7.63
29.252424001693726,-5.0,-4.45,2.79,7.25
29.253544092178345,-6.63,-2.83,4.16,8.32
29.271047830581665,-8.42,-1.0,4.64,9.66
29.272567987442017,-9.6,0.54,4.9,10.79
29.275112867355347,-9.55,1.96,5.26,11.07
29.27764105796814,-8.55,3.63,5.23,10.65
29.280132055282593,-7.81,5.25,5.33,10.81
29.366008043289185,-7.51,6.08,5.52,11.12
29.367725133895874,-7.42,6.05,5.49,11.03
29.368852853775024,-7.29,5.74,5.53,10.8
29.371928930282593,-6.92,5.82,5.5,10.58
29.37443709373474,-6.45,6.58,5.41,10.68
29.376947164535522,-5.98,7.78,5.11,11.06
29.379420042037964,-5.37,8.76,4.4,11.17
29.38192105293274,-4.93,9.37,3.83,11.25
29.384212970733643,-4.28,9.19,3.68,10.78
29.38528800010681,-2.88,7.83,3.34,8.98
29.471209049224854,-0.88,6.58,2.36,7.04
29.473180055618286,1.33,5.85,1.19,6.11
29.474273920059204,3.44,5.39,-0.12,6.39
29.477296113967896,5.83,5.4,-1.16,8.03
29.479830026626587,8.51,6.06,-2.25,10.68
29.482337951660156,10.16,7.18,-3.78,13.0
29.485452890396118,10.59,7.55,-5.5,14.12
29.48656916618347,11.1,7.31,-6.13,14.63
29.503834009170532,12.05,6.96,-5.87,15.1
29.505465030670166,13.04,6.9,-5.46,15.73
29.59111714363098,13.82,6.86,-5.24,16.29
29.592689990997314,14.98,7.51,-6.65,18.02
29.59381103515625,17.13,9.07,-18.15,26.55
29.596410036087036,22.24,2.28,-28.9,36.53
29.598944902420044,21.83,-6.3,-6.22,23.55
29.601298093795776,3.63,-9.7,39.32,40.66
29.602368116378784,-9.04,-10.09,13.63,19.21
29.604217052459717,-14.34,-12.37,-18.51,26.48
29.606508016586304,-13.29,-11.96,-15.61,23.73
29.608999013900757,0.8,-8.7,1.31,8.83
29.694738149642944,9.84,-6.77,11.47,16.55
29.696314096450806,4.26,0.65,2.25,4.86
29.697437047958374,-0.94,5.51,-5.25,7.66
29.70030903816223,-0.67,7.61,-1.95,7.88
29.70260000228882,2.3,7.82,1.38,8.26
29.703706979751587,4.27,5.58,0.27,7.03
29.72104287147522,4.02,3.36,-2.69,5.88
29.72228503227234,2.65,0.56,-1.7,3.19
29.724972009658813,1.62,-2.66,0.75,3.2
29.727545976638794,1.46,-5.53,0.59,5.74
29.81378197669983,1.49,-6.04,-0.79,6.27
29.81534194946289,1.23,-4.16,-1.34,4.54
29.816481828689575,0.67,-1.69,-0.24,1.83
29.81940197944641,0.13,0.11,0.62,0.64
29.82050585746765,-0.25,1.07,0.04,1.09
29.83734393119812,0.08,1.41,-0.81,1.62
29.83891201019287,0.71,1.02,-0.89,1.52
29.84147000312805,1.28,0.46,-0.51,1.45
29.843973875045776,1.44,-0.56,0.07,1.54
29.846693992614746,1.44,-1.36,-0.12,1.98
29.932093858718872,1.4,-1.36,-0.71,2.07
29.93361210823059,1.18,-0.59,-0.61,1.45
29.93474507331848,0.95,0.05,-0.05,0.95
29.937077045440674,0.67,0.28,0.14,0.73
29.955124139785767,-0.02,0.25,0.04,0.25
29.956374883651733,-0.68,-0.06,0.1,0.68
29.95895791053772,-1.06,-0.31,0.37,1.16
29.961480855941772,-1.16,0.14,0.45,1.25
29.96412205696106,-1.06,0.84,0.29,1.38
29.966729879379272,-1.04,1.45,0.04,1.78
29.96924901008606,-0.75,1.24,0.05,1.45
30.053579092025757,-0.65,0.81,0.73,1.26
30.055521965026855,-0.55,0.55,0.66,1.02
30.056658029556274,-0.89,0.52,0.59,1.18
30.059566974639893,-1.38,0.87,0.36,1.67
30.062071084976196,-1.89,1.4,0.0,2.35
30.064538955688477,-2.21,1.13,-0.37,2.5
30.067105054855347,-1.99,0.46,-0.09,2.04
30.069546937942505,-1.86,0.01,0.4,1.9
30.070618867874146,-1.34,-0.11,0.58,1.46
30.091320991516113,-0.12,0.15,-0.14,0.23
30.175765991210938,0.59,0.24,-1.13,1.29
30.177278995513916,0.35,0.16,-0.85,0.93
30.178480863571167,-0.13,-0.34,0.0,0.36
30.181234121322632,-0.04,-1.1,0.08,1.1
30.1837899684906,0.29,-1.68,-0.26,1.72
30.1861629486084,0.92,-2.12,-0.36,2.33
30.187268018722534,1.47,-2.51,-0.21,2.91
30.205034971237183,1.18,-2.84,0.14,3.07
30.20657515525818,0.16,-3.16,0.2,3.17
30.209061861038208,-1.04,-3.87,0.15,4.01
30.294870138168335,-2.2,-5.45,0.28,5.88
30.2963969707489,-3.19,-7.16,0.42,7.84
30.297487020492554,-3.81,-7.97,0.99,8.88
30.300403833389282,-3.43,-7.39,1.86,8.35
30.302974939346313,-2.4,-6.76,2.09,7.47
30.30418610572815,-2.28,-7.36,1.86,7.92
30.32204294204712,-2.97,-9.25,2.87,10.13
30.323312044143677,-1.89,-10.46,3.36,11.14
30.325881958007812,-1.69,-6.37,2.71,7.12
30.32831883430481,-3.71,0.38,-1.1,3.88
30.414414167404175,-5.03,2.45,-4.12,6.94
30.415980100631714,-8.21,-0.17,-2.81,8.67
30.41713309288025,-10.24,-5.86,-1.9,11.95
30.41829800605774,-6.79,-10.79,-2.33,12.95
30.42145085334778,-2.15,-11.54,-0.44,11.74
30.423989057540894,-0.62,-10.77,0.93,10.82
30.426522970199585,-1.19,-10.15,-0.05,10.21
30.429025888442993,-1.59,-9.47,-1.44,9.7
30.431560039520264,-1.18,-9.64,-2.37,9.99
30.434011936187744,-1.39,-9.19,-2.21,9.55
30.51966691017151,-1.94,-8.56,-1.3,8.87
30.521064043045044,-2.07,-7.59,-1.03,7.93
30.523138999938965,-1.97,-6.5,-1.26,6.9
30.52569890022278,-2.3,-5.58,-0.58,6.06
30.527997970581055,-2.93,-4.47,1.42,5.53
30.53050684928894,-3.91,-2.87,3.25,5.83
30.53300404548645,-5.41,-0.96,4.24,6.94
30.535913944244385,-6.47,0.82,4.58,7.96
30.536985158920288,-6.72,2.3,4.68,8.5
30.555352926254272,-6.73,3.77,5.11,9.25
30.640887022018433,-6.69,5.29,5.76,10.29
30.642452001571655,-6.58,6.63,5.87,11.03
30.643635034561157,-6.47,7.43,5.17,11.12
30.646500825881958,-6.47,7.78,4.53,11.08
30.648792028427124,-6.5,7.93,4.33,11.13
30.651283979415894,-6.44,8.12,4.6,11.33
30.65234398841858,-6.21,8.4,4.76,11.47
30.65446901321411,-5.66,8.63,4.48,11.25
30.656888008117676,-5.08,9.0,3.93,11.05
30.659387826919556,-4.17,8.9,3.32,10.37
30.74525809288025,-3.21,8.45,3.0,9.52
30.74683403968811,-2.31,7.66,2.93,8.52
30.747902154922485,-1.17,6.82,3.0,7.54
30.750856161117554,0.37,6.16,2.36,6.6
30.753206968307495,2.09,5.91,0.42,6.28
30.754328966140747,4.18,5.88,-1.5,7.36
30.77158284187317,6.76,6.4,-3.01,9.78
30.773156881332397,9.6,7.23,-4.69,12.9
30.775652170181274,11.39,7.64,-7.02,15.4
30.778169870376587,11.51,7.4,-8.82,16.27
30.864935159683228,11.15,6.68,-9.3,15.98
30.86653208732605,11.62,6.02,-9.05,15.91
30.867677927017212,12.67,5.83,-8.8,16.49
30.868865966796875,13.72,5.6,-7.9,16.79
30.88961100578308,14.77,5.5,-8.23,17.78
30.890995025634766,17.3,5.15,-14.33,23.04
30.893401861190796,17.51,-0.13,-18.58,25.53
30.89600896835327,8.77,-6.28,-0.94,10.82
30.89860200881958,-5.86,-13.51,23.42,27.66
30.901353120803833,-15.79,-18.2,7.58,25.25
30.903393030166626,-14.35,-12.56,-7.88,20.63
30.989187002182007,-3.63,-4.73,-6.06,8.5
30.990741968154907,6.64,-2.54,-2.72,7.61
30.99193501472473,10.32,0.35,2.14,10.54
30.994820833206177,4.97,5.16,1.1,7.24
30.997344970703125,-1.0,8.25,-2.07,8.56
30.999780893325806,-2.43,8.15,-2.55,8.87
31.002856969833374,0.25,4.98,-1.15,5.11
31.003926992416382,3.11,1.16,-1.02,3.47
31.02127194404602,3.68,-1.64,-1.97,4.48
31.022908926010132,2.99,-4.47,-1.72,5.64
31.110583066940308,1.75,-6.7,-0.1,6.92
31.11217713356018,0.71,-6.04,0.51,6.1
31.11329197883606,0.54,-2.95,-0.92,3.13
31.116161108016968,0.63,-0.1,-1.68,1.79
31.118664026260376,0.24,1.76,-0.9,1.99
31.119745016098022,-0.16,2.66,-0.18,2.67
31.12279486656189,-0.23,2.62,-0.25,2.64
31.12531805038452,-0.04,1.94,-0.5,2.0
31.127786874771118,0.42,0.72,-0.4,0.92
31.13013195991516,1.03,-0.53,0.01,1.15
31.21676993370056,1.22,-1.11,0.21,1.66
31.21830701828003,1.21,-1.52,0.46,1.99
31.219377040863037,1.49,-1.51,0.38,2.15
31.220988035202026,1.81,-1.15,0.09,2.14
31.22353482246399,1.63,-0.5,0.11,1.7
31.226045846939087,1.18,0.07,0.0,1.18
31.22849702835083,0.77,0.54,0.08,0.94
31.23099112510681,0.22,0.78,0.18,0.83
31.233526945114136,-0.33,0.59,-0.17,0.69
31.23629593849182,-0.75,0.58,-0.78,1.22
31.321475982666016,-1.2,0.67,-0.93,1.65
31.323013067245483,-1.67,0.5,-0.83,1.93
31.32415509223938,-1.86,0.26,-0.2,1.88
31.327168941497803,-1.77,0.19,0.14,1.78
31.32969903945923,-1.44,0.56,-0.01,1.54
31.332098960876465,-1.13,0.85,-0.15,1.42
31.334646940231323,-1.06,1.11,0.18,1.54
31.336994886398315,-1.63,1.28,0.21,2.08
31.338101148605347,-2.09,0.6,-0.11,2.17
31.35659384727478,-2.1,-0.59,-0.12,2.18
31.441394090652466,-2.24,-1.57,0.03,2.73
31.44297194480896,-2.33,-1.94,-0.2,3.03
31.444167852401733,-1.96,-1.4,-0.99,2.6
31.447049856185913,-1.29,-0.71,-0.9,1.72
31.44949507713318,-0.53,-0.37,-0.46,0.79
31.45166802406311,0.19,-0.41,0.0,0.45
31.452736139297485,0.74,-0.84,0.33,1.16
31.454992055892944,0.96,-1.64,0.34,1.93
31.45746898651123,0.99,-2.85,0.38,3.04
31.459966897964478,0.54,-3.99,0.8,4.1
31.54601001739502,-0.31,-4.64,1.33,4.83
31.547574996948242,-0.95,-5.27,2.12,5.75
31.548682928085327,-1.59,-5.68,2.35,6.34
31.551602125167847,-2.87,-6.57,2.21,7.5
31.554115056991577,-4.16,-7.58,2.45,8.98
31.555299043655396,-4.34,-8.42,2.89,9.9
31.572657823562622,-3.72,-9.48,3.14,10.65
31.57394814491272,-3.55,-10.49,2.92,11.45
31.576284170150757,-4.07,-7.5,2.1,8.78
31.578838109970093,-5.31,-0.6,-0.16,5.34
31.66644787788391,-5.87,2.86,-2.83,7.11
31.66805601119995,-7.63,0.93,-3.19,8.32
31.66917896270752,-11.26,-4.84,-1.86,12.39
31.670357942581177,-11.88,-10.11,-1.4,15.66
31.688796043395996,-6.47,-10.56,-1.46,12.47
31.690047025680542,-1.05,-8.51,-2.19,8.84
31.692611932754517,0.11,-8.29,-2.2,8.57
31.695059061050415,-0.37,-9.16,-1.04,9.22
31.69757103919983,-0.57,-9.45,-2.36,9.75
31.700146913528442,-0.66,-8.96,-4.06,9.85
31.78757405281067,-0.76,-8.2,-3.97,9.14
31.78891396522522,-1.15,-7.33,-3.12,8.04
31.790979146957397,-1.47,-6.79,-2.17,7.27
31.79366397857666,-2.17,-6.31,-1.61,6.86
31.796169996261597,-3.1,-5.37,-1.02,6.28
31.798473119735718,-4.19,-4.04,0.45,5.83
31.80088496208191,-5.49,-2.28,2.15,6.32
31.803285837173462,-7.11,-0.22,3.02,7.72
31.804378032684326,-8.22,1.57,3.26,8.98
31.823467016220093,-8.59,3.07,3.59,9.8
31.824817895889282,-8.65,4.51,3.95,10.52
31.912647008895874,-8.88,6.3,4.49,11.77
31.914117097854614,-8.85,7.91,4.62,12.73
31.915242910385132,-8.35,9.05,4.21,13.01
31.91808795928955,-7.62,9.86,3.38,12.91
31.92048716545105,-6.76,10.06,2.65,12.4
31.921636819839478,-6.17,9.99,2.68,12.04
31.939198970794678,-5.39,9.67,2.79,11.41
31.940572023391724,-4.33,9.17,2.72,10.49
31.943531036376953,-3.25,8.87,2.33,9.72
