time,ax,ay,az,atotal
0.005176067352294922,-0.19,-0.02,0.15,0.24
0.006918191909790039,-0.28,0.0,-0.04,0.28
0.008578062057495117,-0.22,0.1,0.07,0.25
0.011379003524780273,-0.07,0.1,0.04,0.12
0.013905048370361328,0.13,0.06,-0.07,0.15
0.016509056091308594,0.44,-0.18,-0.12,0.49
0.019056081771850586,0.55,-0.06,-0.18,0.58
0.021749019622802734,0.44,0.14,-0.26,0.52
0.02326202392578125,0.33,0.11,-0.09,0.35
0.03284811973571777,0.21,-0.03,-0.02,0.21
0.10012507438659668,0.13,-0.08,0.01,0.15
0.10213804244995117,0.07,0.04,0.15,0.17
0.10368108749389648,0.01,0.14,0.23,0.26
0.10669398307800293,-0.04,0.17,0.25,0.3
0.1082160472869873,0.04,0.17,0.09,0.19
0.12496018409729004,0.2,0.09,0.0,0.21
0.12677407264709473,0.21,0.11,0.07,0.24
0.12936091423034668,0.08,0.07,0.13,0.16
0.132066011428833,-0.04,0.02,0.2,0.2
0.13471102714538574,-0.07,0.01,0.21,0.22
0.19977998733520508,-0.06,0.08,0.21,0.23
0.20172500610351562,0.04,0.14,0.15,0.2
0.20325899124145508,0.03,0.26,0.2,0.32
0.20646405220031738,-0.05,0.22,0.13,0.26
0.2080080509185791,-0.25,0.31,0.05,0.4
0.21093297004699707,-0.28,0.46,0.06,0.54
0.21334004402160645,-0.15,0.49,-0.03,0.51
0.21593689918518066,-0.1,-0.07,0.22,0.25
0.22152400016784668,-0.18,-0.2,-0.01,0.26
0.2316570281982422,-0.1,-0.07,0.15,0.19
0.24122118949890137,0.07,-0.02,0.06,0.09
0.3032081127166748,0.1,0.06,-0.04,0.12
0.30501818656921387,0.08,0.18,0.05,0.2
0.3065509796142578,0.08,0.16,0.07,0.19
0.3094961643218994,0.06,0.11,0.07,0.14
0.3119809627532959,0.03,0.07,0.2,0.21
0.3146650791168213,0.06,0.03,0.25,0.25
0.3170790672302246,0.05,0.06,0.24,0.25
0.32051587104797363,0.05,0.08,0.26,0.27
0.33097004890441895,0.06,0.11,0.25,0.27
0.340487003326416,0.03,0.15,0.21,0.25
0.4020390510559082,0.03,0.13,0.23,0.26
0.40367698669433594,0.0,0.07,0.14,0.15
0.40525317192077637,-0.1,0.02,0.1,0.14
0.40749192237854004,-0.18,0.01,0.21,0.27
0.4259011745452881,-0.24,0.01,0.16,0.28
0.42740797996520996,-0.29,0.0,0.09,0.3
0.43036389350891113,-0.28,-0.01,0.17,0.32
0.4328320026397705,-0.27,0.03,0.22,0.34
0.43549609184265137,-0.27,0.1,0.34,0.44
0.439939022064209,-0.31,0.15,0.5,0.6
0.5015959739685059,-0.44,0.14,0.55,0.71
0.5033628940582275,-0.63,0.05,0.56,0.84
0.5056169033050537,-0.83,-0.09,0.62,1.03
0.5071520805358887,-1.04,-0.24,0.64,1.24
0.5103929042816162,-1.17,-0.31,0.5,1.3
0.5130569934844971,-1.16,-0.33,0.39,1.26
0.5157101154327393,-1.1,-0.31,0.37,1.2
0.5191690921783447,-1.02,-0.23,0.36,1.1
0.5298411846160889,-0.97,-0.1,0.4,1.05
0.5392448902130127,-0.94,0.03,0.54,1.08
0.6008570194244385,-0.94,0.16,0.63,1.14
0.6024949550628662,-1.03,0.26,0.48,1.16
0.6050679683685303,-1.06,0.3,0.14,1.11
0.6075839996337891,-1.08,0.31,-0.44,1.2
0.6093490123748779,-0.96,0.24,-0.73,1.22
0.6257030963897705,-0.77,0.04,-0.66,1.01
0.6272828578948975,-0.69,-0.25,-0.66,0.98
0.6295449733734131,-0.92,-0.39,-0.77,1.26
0.6323320865631104,-1.35,-0.49,-0.53,1.53
0.638469934463501,-1.76,-0.67,-0.01,1.88
0.7049648761749268,-2.17,-0.83,0.36,2.35
0.7067570686340332,-2.56,-0.83,0.58,2.75
0.7082719802856445,-2.95,-0.69,0.7,3.1
0.7111570835113525,-3.09,-0.48,0.86,3.24
0.7136340141296387,-3.1,-0.24,0.98,3.26
0.716264009475708,-3.14,0.12,1.08,3.32
0.7188661098480225,-3.02,0.61,1.21,3.31
0.7216050624847412,-2.43,1.06,1.17,2.89
0.7278239727020264,-1.12,1.3,0.9,1.93
0.7380239963531494,0.56,1.33,0.58,1.55
0.8050940036773682,2.27,1.29,0.57,2.67
0.8069140911102295,3.44,1.35,0.81,3.78
0.8084938526153564,3.45,1.57,0.9,3.89
0.8114030361175537,2.9,1.77,0.76,3.48
0.8140461444854736,1.84,1.82,0.79,2.7
0.8166959285736084,0.33,1.73,1.07,2.06
0.8192770481109619,-1.2,1.52,1.07,2.21
0.821699857711792,-2.33,1.23,1.05,2.83
0.8271369934082031,-2.83,1.01,1.56,3.38
0.837306022644043,-2.51,0.81,1.75,3.16
0.91127610206604,-1.21,0.44,1.15,1.72
0.9131109714508057,0.39,0.07,0.43,0.58
0.9146490097045898,1.59,-0.06,-0.02,1.59
0.9174590110778809,2.52,-0.07,-0.37,2.54
0.9201481342315674,3.17,-0.08,-0.74,3.25
0.9227380752563477,3.43,-0.05,-0.99,3.57
0.9242100715637207,3.3,0.02,-1.11,3.48
0.9269580841064453,2.76,0.17,-1.35,3.07
0.9296090602874756,2.01,0.37,-1.47,2.51
0.9362630844116211,1.47,0.56,-1.22,1.99
1.014232873916626,1.02,0.74,-0.92,1.56
1.016247034072876,0.78,0.8,-0.88,1.42
1.0176899433135986,0.69,0.62,-1.25,1.55
1.0205271244049072,0.88,0.27,-0.81,1.22
1.023669958114624,1.58,0.2,-1.18,1.98
1.025252103805542,1.25,0.52,-1.57,2.07
1.0430309772491455,-0.91,0.46,-0.4,1.09
1.0446979999542236,-3.58,-1.33,4.25,5.71
1.0478310585021973,-4.32,-4.3,7.43,9.61
1.0505120754241943,-2.76,-6.05,7.59,10.09
1.0531599521636963,-0.43,-5.28,5.08,7.33
1.1123621463775635,0.88,-2.93,1.93,3.61
1.1142070293426514,0.7,-0.7,0.93,1.35
1.1163880825042725,0.06,0.93,0.79,1.22
1.119206190109253,-0.28,2.09,-0.86,2.27
1.1219561100006104,0.17,2.95,-3.05,4.24
1.1246612071990967,1.01,3.1,-4.52,5.57
1.1264610290527344,2.4,2.71,-5.04,6.2
1.1438729763031006,3.66,2.32,-4.77,6.44
1.1454951763153076,4.5,1.28,-3.44,5.8
1.1483771800994873,5.0,-0.56,-1.91,5.38
1.2083208560943604,4.88,-2.29,-1.08,5.49
1.2103230953216553,3.59,-3.14,0.11,4.77
1.2118289470672607,1.47,-2.92,1.47,3.58
1.2147119045257568,-0.56,-1.97,1.3,2.42
1.217254877090454,-2.44,-0.71,0.65,2.62
1.219905138015747,-3.51,0.33,-0.25,3.53
1.2224571704864502,-3.63,0.84,-0.79,3.8
1.2243540287017822,-3.13,0.98,-1.05,3.44
1.2341840267181396,-2.17,0.91,-0.99,2.55
1.2443950176239014,-0.98,0.68,-0.8,1.43
1.3059570789337158,-0.21,0.23,-0.46,0.55
1.30800199508667,0.07,-0.25,-0.42,0.49
1.3099029064178467,0.07,-0.52,-0.06,0.52
1.3122739791870117,-0.12,-0.52,0.38,0.65
1.3146870136260986,-0.17,-0.38,0.45,0.61
1.3173739910125732,0.17,-0.09,0.27,0.33
1.3200199604034424,0.52,0.11,0.05,0.53
1.3236439228057861,1.03,-0.11,-0.68,1.23
1.333956003189087,0.6,-0.16,-0.29,0.68
1.3436071872711182,-0.22,0.01,-0.42,0.47
1.4059209823608398,0.32,0.06,-0.37,0.49
1.407707929611206,0.14,0.22,-0.6,0.65
1.4094278812408447,-0.02,0.22,-0.5,0.54
1.412052869796753,-0.12,0.05,-0.14,0.19
1.4147570133209229,-0.43,0.03,-0.3,0.52
1.4173860549926758,-0.55,0.04,-0.06,0.55
1.4200289249420166,-0.86,0.07,0.05,0.86
1.4228951930999756,-1.24,0.18,0.17,1.26
1.4333159923553467,-1.33,0.27,0.23,1.37
1.442889928817749,-1.24,0.27,0.33,1.31
1.5117619037628174,-0.98,0.24,0.36,1.07
1.5135960578918457,-0.95,0.27,0.42,1.07
1.5150160789489746,-0.91,0.39,0.45,1.08
1.5177361965179443,-1.12,0.45,0.53,1.31
1.520435094833374,-1.19,0.35,0.63,1.39
1.5230071544647217,-0.59,0.3,0.62,0.9
1.524487018585205,-0.32,0.23,0.2,0.44
1.5274021625518799,-0.28,-0.02,-0.01,0.28
1.5321509838104248,-0.17,-0.43,0.42,0.62
1.5422241687774658,-0.68,-0.72,0.31,1.03
1.6101548671722412,-0.97,-1.15,0.63,1.63
1.6121580600738525,-1.39,-1.39,0.41,2.0
1.6136970520019531,-2.04,-1.18,0.15,2.36
1.6166541576385498,-2.38,-0.68,-0.05,2.47
1.619297981262207,-2.14,-0.07,-0.82,2.29
1.6219251155853271,-1.77,0.37,-1.62,2.42
1.6244728565216064,-1.25,0.18,-1.23,1.76
1.6259801387786865,-0.62,-0.2,-0.68,0.94
1.643265962600708,-0.3,-0.27,-0.51,0.65
1.6448700428009033,-0.25,-0.36,0.27,0.51
1.7094409465789795,-0.16,-0.44,0.75,0.88
1.7115318775177002,0.26,-0.65,0.09,0.7
1.7130229473114014,0.69,-1.45,0.8,1.79
1.7158381938934326,1.27,-2.02,1.0,2.58
1.7185161113739014,0.49,-1.99,0.34,2.07
1.7211480140686035,-0.62,-2.07,0.28,2.17
1.7241499423980713,-1.16,-2.22,-0.29,2.52
1.7256910800933838,-1.15,-2.62,-0.28,2.87
1.7441060543060303,-1.35,-3.03,-0.2,3.32
1.745718002319336,-1.67,-4.33,1.81,4.98
1.8080718517303467,-2.07,-5.37,2.76,6.38
1.8101179599761963,-2.34,-4.87,2.91,6.13
1.8116109371185303,-2.31,-4.52,3.47,6.14
1.8145020008087158,-1.94,-4.61,2.61,5.64
1.8171441555023193,-1.6,-4.67,2.77,5.66
1.8198010921478271,-1.7,-4.92,3.29,6.15
1.8224561214447021,-2.74,-4.94,2.07,6.01
1.8238530158996582,-4.35,-4.7,1.35,6.54
1.8301961421966553,-5.6,-4.47,0.36,7.17
1.8401920795440674,-6.8,-4.1,-2.18,8.23
1.850391149520874,-6.9,-4.03,-1.94,8.22
1.9106361865997314,-5.65,-4.65,-1.35,7.44
1.9126160144805908,-3.23,-5.5,-3.55,7.29
1.9141252040863037,0.1,-7.6,-2.79,8.09
1.9170019626617432,3.66,-9.71,-2.9,10.77
1.919666051864624,5.82,-9.98,-4.13,12.26
1.922361135482788,5.3,-9.11,-3.89,11.23
1.924875020980835,4.04,-7.33,-3.37,9.02
1.9295408725738525,3.62,-5.34,-2.07,6.77
1.9429829120635986,2.29,-3.9,-1.06,4.64
1.9496071338653564,0.18,-3.47,-0.24,3.48
2.008131980895996,-1.57,-3.6,1.06,4.06
2.0100228786468506,-2.22,-3.24,2.37,4.58
2.0114920139312744,-2.77,-2.33,3.15,4.79
2.0144970417022705,-3.28,-1.31,3.71,5.12
2.0171260833740234,-3.02,-0.41,4.55,5.47
2.0196988582611084,-2.36,0.42,5.3,5.81
2.0223701000213623,-2.13,1.31,5.2,5.77
2.0288431644439697,-1.83,1.97,4.99,5.66
2.0388219356536865,-1.41,2.37,4.78,5.51
2.060155153274536,-1.36,2.61,4.25,5.16
2.116882085800171,-1.43,2.64,3.97,4.97
2.118920087814331,-1.35,2.56,4.03,4.96
2.120487928390503,-1.18,2.47,4.2,5.01
2.1232621669769287,-1.26,2.52,4.11,4.98
2.12485408782959,-1.64,2.7,4.31,5.34
2.1277730464935303,-1.91,3.1,4.89,6.09
2.1303799152374268,-1.98,3.58,4.89,6.37
2.1327779293060303,-1.77,3.88,4.72,6.36
2.138249158859253,-1.64,3.99,4.31,6.09
2.1483089923858643,-1.81,4.0,4.16,6.04
2.20658802986145,-1.97,4.05,4.17,6.13
2.2086269855499268,-2.14,4.2,4.06,6.22
2.2104740142822266,-2.39,4.46,4.05,6.48
2.2132508754730225,-2.65,4.81,4.03,6.81
2.2159500122070312,-2.68,5.21,3.81,6.98
2.2185890674591064,-2.29,5.34,3.44,6.75
2.2212440967559814,-1.39,5.33,3.18,6.36
2.2274019718170166,-0.37,5.25,2.86,5.98
2.237689971923828,0.69,5.06,2.36,5.62
2.2471930980682373,1.61,4.83,1.74,5.38
2.312451124191284,2.34,4.6,1.26,5.31
2.3144519329071045,3.02,4.31,0.64,5.3
2.316002130508423,3.48,4.08,0.07,5.36
2.318531036376953,3.63,3.85,-0.13,5.29
2.3212900161743164,3.6,3.42,-0.33,4.97
2.324460983276367,3.41,2.91,-0.71,4.53
2.3260440826416016,3.11,2.42,-0.89,4.03
2.359930992126465,2.88,1.86,-1.03,3.57
2.361768960952759,2.81,1.25,-1.15,3.28
2.3645741939544678,3.07,0.95,-1.19,3.42
2.421808958053589,3.32,1.16,-1.38,3.77
2.4237401485443115,3.74,1.48,-1.86,4.43
2.4253580570220947,3.73,1.59,-6.59,7.73
2.428057909011841,3.41,0.9,-10.34,10.92
2.430687189102173,6.92,-1.13,-13.1,14.85
2.4333441257476807,10.1,-4.92,-5.22,12.38
2.435961961746216,8.79,-9.37,5.14,13.83
2.438704013824463,3.6,-7.62,3.08,8.97
2.441291093826294,0.96,-0.49,0.7,1.28
2.4459259510040283,0.24,4.43,2.25,4.97
2.5124828815460205,-2.14,5.21,2.41,6.12
2.514266014099121,-4.99,3.9,0.06,6.33
2.515841007232666,-5.8,3.18,-0.78,6.66
2.518954038619995,-3.96,3.06,-1.09,5.12
2.52172589302063,-1.34,2.71,-0.33,3.04
2.5246660709381104,1.01,2.26,-0.13,2.47
2.526175022125244,3.34,2.14,-0.45,3.99
2.54382586479187,5.0,1.78,-0.38,5.32
2.5453760623931885,5.19,0.02,-0.73,5.24
2.5483319759368896,4.76,-2.92,0.11,5.58
2.608630895614624,3.68,-5.43,0.48,6.57
2.6106131076812744,1.26,-5.91,-0.02,6.04
2.612091064453125,-0.8,-3.42,-0.23,3.51
2.6149652004241943,-1.64,0.19,-0.07,1.65
2.617534875869751,-1.6,2.71,-0.28,3.15
2.620231866836548,-0.83,4.23,-0.55,4.34
2.622865915298462,-0.29,4.76,-1.28,4.93
2.6246349811553955,0.75,3.79,-1.51,4.14
2.6349499225616455,1.45,1.61,-1.42,2.59
2.6444809436798096,0.9,-1.13,-1.62,2.17
2.6548211574554443,-0.15,-4.19,-1.47,4.44
2.7137129306793213,-0.48,-6.11,-2.04,6.45
2.7154929637908936,0.71,-5.0,-2.19,5.5
2.7176921367645264,1.79,-1.71,-1.21,2.75
2.7202041149139404,2.23,1.06,-1.47,2.87
2.722891092300415,2.38,2.48,-1.14,3.62
2.7255098819732666,1.46,2.6,-0.36,3.0
2.7272980213165283,0.63,1.28,-0.41,1.48
2.7442119121551514,0.43,-0.49,-0.4,0.76
2.745851993560791,0.67,-1.56,-0.23,1.71
2.7537450790405273,1.02,-1.75,-0.06,2.02
2.8124799728393555,1.07,-0.99,-0.63,1.58
2.814427137374878,0.83,0.06,-0.77,1.13
2.8159048557281494,0.4,0.61,-0.7,1.01
2.8301260471343994,-0.07,0.5,-0.82,0.96
2.831825017929077,-0.75,-0.03,-0.52,0.91
2.8333940505981445,-1.29,-0.79,-0.53,1.6
2.8362390995025635,-1.17,-1.45,-1.11,2.16
2.83899188041687,0.02,-1.65,-0.33,1.68
2.8430709838867188,1.38,-1.4,0.2,1.97
2.8535079956054688,1.86,-0.71,-0.42,2.03
2.9116580486297607,1.86,-0.04,0.06,1.86
2.91353702545166,1.53,-0.12,0.89,1.77
2.9150068759918213,0.98,-1.07,0.41,1.5
2.9271020889282227,0.48,-2.08,-0.15,2.13
2.92875599861145,0.41,-2.64,0.2,2.67
2.9311611652374268,0.47,-2.39,-0.21,2.44
2.933744192123413,0.61,-1.48,-0.22,1.61
2.9364089965820312,0.68,-0.48,-0.61,1.03
2.942405939102173,0.55,0.32,-1.07,1.24
2.952915906906128,0.46,1.04,-1.38,1.78
3.0109150409698486,0.47,1.21,-0.36,1.34
3.0129640102386475,0.18,1.15,-0.42,1.23
3.014425039291382,-0.6,1.18,-1.29,1.84
3.0271379947662354,-0.86,0.99,-0.54,1.41
3.028809070587158,-0.31,0.31,-0.03,0.43
3.031480073928833,-0.29,-0.26,0.24,0.45
3.0341641902923584,-0.57,-0.28,0.65,0.9
3.036846876144409,-0.42,-0.12,0.86,0.96
3.041762113571167,-0.31,0.04,0.87,0.92
3.0521130561828613,-0.35,0.37,0.26,0.57
3.115478992462158,-0.64,0.71,-0.14,0.96
3.1174581050872803,-1.27,0.95,-0.05,1.58
3.1189610958099365,-1.66,1.03,-0.29,1.97
3.12197208404541,-1.97,1.13,-0.19,2.27
3.1247830390930176,-2.12,1.21,0.1,2.44
3.1263301372528076,-1.96,0.98,0.02,2.19
3.1441400051116943,-1.88,0.56,-0.15,1.96
3.145764112472534,-1.82,0.0,0.1,1.82
3.1485259532928467,-1.84,-0.82,0.3,2.03
3.1512229442596436,-1.83,-1.67,0.45,2.51
3.2150471210479736,-1.97,-2.34,1.11,3.25
3.217055082321167,-2.18,-3.02,1.7,4.09
3.2185518741607666,-2.52,-3.76,1.61,4.8
3.2213871479034424,-3.25,-4.69,2.57,6.25
3.2236039638519287,-4.64,-5.79,3.62,8.25
3.225980043411255,-6.38,-6.55,3.44,9.76
3.2287518978118896,-7.06,-6.48,3.97,10.37
3.231397867202759,-6.84,-5.84,4.0,9.84
3.2403790950775146,-6.84,-5.13,3.12,9.1
3.2507920265197754,-6.83,-4.94,2.79,8.87
3.3133761882781982,-6.8,-4.88,2.46,8.72
3.3153860569000244,-7.27,-4.42,1.82,8.7
3.316878080368042,-7.93,-3.69,0.22,8.74
3.3199050426483154,-8.24,-3.59,-1.18,9.06
3.322672128677368,-7.54,-4.29,-1.34,8.77
3.3253390789031982,-4.32,-4.98,-3.03,7.25
3.3268439769744873,-0.25,-6.45,-6.28,9.0
3.344370126724243,3.99,-8.45,-7.55,12.01
3.346095085144043,6.99,-9.09,-7.04,13.45
3.34967303276062,7.28,-10.29,-4.3,13.31
3.4069721698760986,5.27,-8.65,-2.15,10.35
3.4090611934661865,2.3,-5.41,-2.06,6.22
3.4110171794891357,0.88,-2.92,-1.44,3.37
3.4137771129608154,0.26,-1.96,-0.08,1.97
3.416483163833618,-0.89,-1.39,0.71,1.79
3.4191529750823975,-2.03,-0.96,0.56,2.31
3.421858072280884,-2.54,-0.51,0.43,2.62
3.429248094558716,-3.77,0.36,1.43,4.04
3.439393997192383,-5.39,1.55,2.71,6.22
3.449270009994507,-6.14,2.94,3.11,7.48
3.4589059352874756,-5.96,4.05,3.01,7.8
3.5109169483184814,-5.58,5.03,3.2,8.16
3.51269793510437,-5.02,5.58,3.06,8.1
3.5142481327056885,-4.4,5.71,3.06,7.83
3.516606092453003,-3.74,5.78,2.9,7.47
3.519177198410034,-2.88,5.47,2.65,6.72
3.521851062774658,-2.12,4.66,2.41,5.65
3.5284130573272705,-1.78,3.75,2.23,4.71
3.5386359691619873,-1.47,2.98,2.2,3.98
3.5483601093292236,-1.02,2.65,2.11,3.53
3.5582940578460693,-0.73,2.73,2.23,3.59
3.610564947128296,-0.53,3.2,2.31,3.98
3.6123621463775635,-0.45,4.03,2.09,4.56
3.6138951778411865,-0.63,4.84,1.83,5.21
3.6169321537017822,-0.68,5.34,1.55,5.6
3.6195671558380127,-0.65,5.54,1.19,5.7
3.6223371028900146,-0.75,5.4,1.09,5.55
3.6278069019317627,-0.89,4.95,0.92,5.11
3.6379401683807373,-0.75,4.38,0.62,4.48
3.6480062007904053,-0.3,3.9,-0.01,3.91
3.6575448513031006,0.21,3.59,-0.51,3.63
3.709697961807251,0.85,3.41,-0.72,3.58
3.711461067199707,1.55,3.34,-0.81,3.77
3.7130229473114014,2.35,3.32,-1.14,4.22
3.7158381938934326,3.14,3.33,-1.34,4.76
3.718506097793579,3.65,3.19,-1.24,5.0
3.7212090492248535,3.75,2.93,-1.41,4.96
3.72733998298645,3.58,2.7,-1.62,4.76
3.7373111248016357,3.39,2.58,-1.39,4.48
3.7471959590911865,3.26,2.55,-1.26,4.32
3.7568650245666504,3.34,2.79,-1.51,4.6
3.8102550506591797,3.45,3.33,-1.62,5.06
3.8120880126953125,3.64,3.68,-2.43,5.71
3.8145081996917725,3.45,3.66,-5.75,7.63
3.817189931869507,4.55,2.6,-5.84,7.84
3.8198859691619873,7.66,0.46,-9.03,11.85
3.8226401805877686,10.4,-2.33,-6.91,12.7
3.8264920711517334,9.77,-5.6,1.96,11.43
3.836616039276123,4.18,-5.03,3.7,7.51
3.846289873123169,-0.56,-0.89,0.88,1.37
3.8566160202026367,-2.44,2.79,0.56,3.74
3.914005994796753,-2.92,4.2,-1.48,5.32
3.9158380031585693,-3.12,3.3,-3.81,5.92
3.9180471897125244,-1.8,0.93,-2.72,3.39
3.9209280014038086,0.44,-0.87,0.61,1.15
3.9235520362854004,2.27,-0.61,0.46,2.39
3.9260940551757812,3.34,0.89,-1.0,3.59
3.9278361797332764,4.16,1.69,0.29,4.49
3.9450600147247314,4.07,0.48,1.15,4.25
3.946643114089966,2.76,-1.32,0.3,3.07
3.955414056777954,0.76,-2.49,-0.38,2.63
4.013473987579346,-0.62,-2.88,0.52,2.99
4.015270948410034,-0.57,-2.1,0.27,2.19
4.017705202102661,0.04,-0.65,-0.6,0.88
4.020398855209351,0.83,0.2,-0.14,0.86
4.02311110496521,1.54,0.55,-0.59,1.73
4.025613069534302,1.96,0.55,-1.19,2.35
4.0269739627838135,2.19,0.45,-0.83,2.38
4.0457189083099365,2.06,0.47,-0.59,2.19
4.0473082065582275,1.9,0.49,-0.65,2.06
4.054669141769409,1.62,0.35,-0.75,1.81
4.110774993896484,1.34,-0.15,-0.82,1.57
4.1127610206604,1.48,-0.81,-0.81,1.87
4.114260911941528,2.03,-1.28,-0.16,2.4
4.117042064666748,2.33,-1.13,0.23,2.59
4.119417905807495,2.07,-0.6,0.07,2.15
4.122087001800537,1.61,-0.33,0.11,1.64
4.125290155410767,1.3,-0.41,0.07,1.36
4.134567975997925,1.3,-0.51,-0.39,1.44
4.144177198410034,1.4,-0.32,-0.76,1.62
4.154458045959473,1.28,-0.05,-0.99,1.61
4.212228059768677,0.93,0.14,-1.13,1.47
4.214323997497559,0.42,0.21,-1.44,1.51
4.215826034545898,-0.1,0.15,-1.43,1.44
4.228718996047974,-0.42,0.07,-1.03,1.11
4.230384111404419,-0.58,0.05,-0.66,0.88
4.233123064041138,-0.7,0.06,-0.62,0.93
4.235741853713989,-0.78,0.1,-0.38,0.87
4.238512992858887,-1.19,0.34,-0.19,1.25
4.243387937545776,-1.91,0.46,0.15,1.97
4.25379204750061,-2.26,0.24,0.18,2.27
4.263835191726685,-2.07,-0.11,0.2,2.08
4.314570188522339,-1.76,-0.24,0.62,1.88
4.3163721561431885,-1.64,-0.18,0.61,1.75
4.31856107711792,-2.02,-0.27,0.27,2.05
4.32129693031311,-2.22,-0.36,0.47,2.29
4.323958158493042,-1.81,-0.31,0.75,1.98
4.3254170417785645,-1.25,-0.36,0.42,1.36
4.333118200302124,-1.02,-0.53,0.28,1.18
4.343941926956177,-0.78,-0.17,0.54,0.96
4.3525800704956055,-0.54,0.31,0.32,0.7
4.363002061843872,-0.17,0.47,-0.1,0.5
4.415160894393921,0.24,0.51,-0.13,0.57
4.416981935501099,0.33,0.53,0.04,0.62
4.41855001449585,0.12,0.55,0.0,0.56
4.42140793800354,-0.17,0.34,0.18,0.42
4.4240429401397705,-0.7,0.01,0.68,0.97
4.425499200820923,-1.38,-0.34,0.96,1.71
4.432172060012817,-2.02,-0.81,1.14,2.45
4.442115068435669,-2.55,-1.3,0.81,2.97
4.452410936355591,-2.98,-1.81,0.74,3.56
4.462093114852905,-3.27,-2.51,0.66,4.17
4.51396918296814,-3.27,-3.1,-0.2,4.51
4.5156090259552,-2.33,-3.74,0.19,4.41
4.5171730518341064,-1.37,-4.21,1.69,4.73
4.5200841426849365,-1.11,-4.35,1.31,4.67
4.522711992263794,-0.87,-4.62,1.24,4.86
4.525496006011963,-0.5,-5.25,2.13,5.68
4.531792879104614,-0.38,-5.85,2.74,6.47
4.5456578731536865,-0.94,-6.12,3.13,6.93
4.551312208175659,-2.13,-6.22,4.23,7.81
4.561390161514282,-3.79,-6.27,5.38,9.08
4.613447904586792,-6.7,-6.31,4.68,10.32
4.615235090255737,-9.31,-6.2,4.15,11.93
4.616828203201294,-11.18,-5.12,3.4,12.75
4.619814157485962,-12.73,-3.47,1.35,13.26
4.622479200363159,-13.15,-2.36,-0.63,13.37
4.625732183456421,-11.91,-1.93,-2.11,12.24
4.6311070919036865,-8.57,-2.99,-2.12,9.32
4.645248174667358,-4.77,-5.6,-4.69,8.72
4.650817155838013,-0.39,-7.08,-7.53,10.34
4.6607279777526855,3.28,-8.71,-7.84,12.16
4.71831202507019,6.58,-9.42,-6.61,13.25
4.720124006271362,8.36,-9.69,-4.18,13.46
4.721705198287964,7.5,-8.37,-3.17,11.67
4.724650144577026,3.56,-5.44,-3.35,7.31
4.726157903671265,1.12,-3.44,-2.89,4.63
4.729156017303467,0.6,-3.14,-0.84,3.3
4.731800079345703,-0.41,-2.72,0.49,2.79
4.740092039108276,-2.27,-2.24,0.29,3.2
4.750229120254517,-4.05,-2.03,0.1,4.53
4.759966135025024,-5.47,-1.64,0.71,5.75
4.818413019180298,-6.83,-0.79,2.01,7.16
4.8202409744262695,-7.75,0.05,2.73,8.21
4.821818113327026,-7.98,0.85,2.67,8.45
4.824393033981323,-7.35,1.78,2.75,8.04
4.825829029083252,-6.49,2.93,2.8,7.65
4.8292200565338135,-5.8,3.83,2.71,7.46
4.831926107406616,-5.6,4.19,2.6,7.46
4.839591979980469,-5.58,4.04,2.64,7.37
4.849581003189087,-5.2,3.5,2.73,6.83
4.859328031539917,-4.47,3.02,2.92,6.13
4.917520999908447,-3.64,2.73,2.82,5.35
4.919341087341309,-3.15,2.52,2.83,4.92
4.920929193496704,-2.69,2.66,2.66,4.62
4.923945188522339,-2.51,3.12,2.69,4.82
4.926429986953735,-2.49,3.69,2.7,5.2
4.928224086761475,-2.4,4.43,2.66,5.69
4.945724010467529,-2.18,5.27,2.64,6.28
4.947312116622925,-2.15,5.92,2.48,6.76
4.95025897026062,-2.28,6.27,2.48,7.11
4.958575963973999,-2.32,6.25,2.28,7.04
5.016345977783203,-2.35,6.07,2.21,6.87
5.018171072006226,-2.27,5.96,2.13,6.72
5.019741058349609,-1.97,5.92,2.0,6.55
5.022740125656128,-1.5,6.04,1.78,6.47
5.025859117507935,-0.94,6.1,1.53,6.35
5.027374029159546,-0.25,6.03,1.19,6.15
5.044749975204468,0.54,5.74,0.59,5.79
5.046426057815552,1.29,5.27,-0.2,5.42
5.049278974533081,2.09,4.71,-0.79,5.21
5.057838201522827,3.11,3.94,-1.14,5.14
5.067895174026489,3.97,3.19,-1.49,5.3
5.120837926864624,4.69,2.28,-1.39,5.39
5.122835874557495,5.34,1.16,-1.92,5.79
5.1244330406188965,5.63,0.22,-2.49,6.15
5.125982046127319,5.62,-0.36,-2.31,6.08
5.145434141159058,5.85,-0.58,-2.57,6.41
5.147050142288208,6.22,-0.33,-3.51,7.14
5.150091886520386,5.95,0.12,-3.99,7.16
5.152774095535278,5.18,0.16,-3.35,6.17
5.157140016555786,5.01,-0.32,-3.54,6.14
5.167503118515015,6.11,-0.89,-4.06,7.38
5.21999192237854,7.82,-0.93,-4.36,9.0
5.221922159194946,7.69,-0.1,-6.97,10.37
5.2235119342803955,7.18,0.04,-7.92,10.69
5.226340055465698,8.79,-1.14,-9.57,13.04
5.227972984313965,5.75,-5.25,-4.48,8.98
5.245419025421143,-0.64,-15.08,10.04,18.12
5.2472450733184814,-2.19,-19.75,11.59,23.0
5.249985933303833,-4.18,-18.29,0.79,18.77
5.256652116775513,-4.66,-7.79,-3.31,9.66
5.266484022140503,-4.57,4.74,-1.47,6.74
5.319753885269165,-3.46,11.87,-2.5,12.61
5.321747064590454,-1.15,15.28,-2.02,15.45
5.323345899581909,-0.11,12.36,-3.54,12.85
5.32642388343811,0.86,6.03,-0.16,6.09
5.328022003173828,2.76,1.74,2.54,4.13
5.345069169998169,4.77,-1.91,-0.39,5.15
5.346692085266113,7.16,-6.13,-1.99,9.63
5.349397897720337,9.43,-10.49,-1.3,14.16
5.355690002441406,8.24,-9.82,0.54,12.83
5.366113901138306,4.97,-3.06,1.32,5.98
5.419661998748779,3.31,1.3,0.55,3.59
5.4216179847717285,2.68,2.88,0.0,3.93
5.42317795753479,2.2,2.69,0.33,3.49
5.426182985305786,1.09,1.6,0.48,1.99
5.427721977233887,0.59,0.29,-0.63,0.91
5.445622205734253,0.6,-0.57,-0.2,0.85
5.447259187698364,0.45,-1.11,1.17,1.67
5.450269937515259,-0.65,-1.36,0.43,1.56
5.4550158977508545,-1.65,-1.24,-0.78,2.2
5.465041875839233,-1.23,-0.96,-1.14,1.93
5.52347207069397,0.63,-0.89,-0.86,1.38
5.525338888168335,1.16,-0.38,-1.02,1.59
5.526901960372925,0.88,0.29,-1.31,1.6
5.529707193374634,0.87,0.67,-0.66,1.28
5.53236198425293,0.08,0.85,-0.71,1.11
5.534988164901733,-0.23,0.55,-0.38,0.7
5.537536859512329,0.13,0.06,-0.21,0.25
5.544965028762817,0.21,-0.05,-0.18,0.28
5.5546228885650635,0.12,0.11,-0.05,0.17
5.564558029174805,-0.21,0.38,-0.15,0.45
5.622490167617798,-0.29,0.47,-0.09,0.55
5.624361991882324,-0.37,0.5,0.0,0.62
5.625941038131714,-0.63,0.59,-0.2,0.88
5.628525018692017,-0.9,0.65,-0.19,1.12
5.646310091018677,-0.93,0.53,-0.26,1.1
5.647921085357666,-0.84,0.39,-0.2,0.94
5.650979995727539,-0.81,0.21,0.12,0.84
5.653679132461548,-1.02,0.11,0.22,1.04
5.656454086303711,-0.94,0.13,0.13,0.95
5.66364312171936,-0.56,0.23,0.52,0.79
5.721567869186401,-0.56,0.43,0.76,1.03
5.723428964614868,-0.54,0.51,0.95,1.2
5.725022077560425,-0.73,0.38,0.59,1.01
5.726551055908203,-1.06,0.09,0.44,1.15
5.746149063110352,-0.86,-0.17,0.42,0.97
5.747779130935669,-0.48,-0.41,0.23,0.67
5.750802993774414,-0.79,-0.6,0.97,1.38
5.753491163253784,-1.47,-0.72,1.22,2.04
5.756144046783447,-1.93,-0.62,0.91,2.22
5.763167142868042,-2.05,-0.48,0.97,2.31
5.822940111160278,-1.81,-0.21,0.66,1.93
5.824864149093628,-1.08,0.2,0.54,1.22
5.826422929763794,-0.12,0.52,0.8,0.96
5.829365968704224,0.54,0.64,0.69,1.08
5.832029104232788,0.95,0.5,0.77,1.32
5.834691047668457,1.4,0.13,0.86,1.64
5.837337017059326,1.52,-0.27,0.66,1.67
5.842437982559204,1.18,-0.58,0.58,1.43
5.852562189102173,0.73,-0.88,0.54,1.26
5.862441062927246,0.24,-1.01,0.6,1.19
5.872464895248413,-0.52,-0.9,0.6,1.2
5.924958944320679,-1.36,-0.87,0.63,1.73
5.926717042922974,-2.22,-1.06,0.78,2.58
5.928524017333984,-3.01,-1.34,1.15,3.48
5.931226968765259,-3.65,-1.56,1.08,4.11
5.933809041976929,-4.29,-1.76,0.58,4.67
5.936352968215942,-4.61,-2.13,0.69,5.12
5.941655874252319,-4.15,-2.63,1.59,5.16
5.952057123184204,-3.41,-3.03,2.27,5.09
5.96164608001709,-3.09,-3.23,2.16,4.96
5.971868991851807,-2.86,-3.38,2.34,5.0
6.025152921676636,-2.78,-3.89,2.55,5.41
6.027206182479858,-3.16,-5.08,3.06,6.71
6.028836011886597,-3.62,-6.7,4.21,8.7
6.031481981277466,-4.15,-8.32,5.23,10.66
6.033851861953735,-5.03,-9.79,6.36,12.71
6.036474943161011,-6.18,-11.01,6.47,14.18
6.0409181118011475,-7.4,-11.64,5.73,14.93
6.051215887069702,-7.94,-11.23,5.53,14.82
6.060889005661011,-7.24,-9.97,3.56,12.82
6.071215867996216,-5.84,-8.75,0.18,10.52
6.124285936355591,-4.21,-7.68,-0.41,8.76
6.126299142837524,-2.35,-6.46,0.69,6.9
6.127922058105469,-0.96,-5.08,0.87,5.24
6.130680084228516,0.32,-3.68,0.07,3.69
6.133331060409546,2.04,-2.4,-0.69,3.22
6.135966062545776,3.83,-0.94,-1.0,4.06
6.140264987945557,3.96,0.8,-0.79,4.11
6.150745153427124,3.33,2.59,-0.4,4.23
6.160298109054565,2.98,4.09,-0.12,5.06
6.170531988143921,1.14,5.23,1.86,5.66
6.224801063537598,-1.36,5.61,4.38,7.24
6.226778984069824,-2.34,5.17,5.26,7.73
6.228344202041626,-2.4,4.75,6.27,8.22
6.231125116348267,-2.91,4.63,7.57,9.33
6.233803033828735,-3.62,4.37,8.64,10.33
6.2364490032196045,-3.87,3.92,8.91,10.47
6.240056991577148,-3.89,3.38,8.94,10.31
6.249876976013184,-3.64,3.01,8.92,10.09
6.259605169296265,-3.12,2.92,8.67,9.66
6.269837141036987,-2.4,2.85,8.13,8.94
6.328731060028076,-1.29,2.47,7.7,8.18
6.330703973770142,-0.25,2.0,7.72,7.97
6.332269906997681,0.46,1.46,7.25,7.4
6.335308074951172,1.56,0.81,7.29,7.49
6.337702035903931,3.17,0.52,6.88,7.59
6.340487003326416,4.6,0.58,5.92,7.51
6.343167066574097,6.07,0.63,4.52,7.59
6.348912000656128,7.2,0.66,3.67,8.1
6.380420923233032,7.79,0.74,3.12,8.42
6.382193088531494,7.72,0.98,2.18,8.08
6.43519401550293,7.33,0.88,0.69,7.41
6.43724513053894,6.69,0.42,0.27,6.7
6.438827991485596,5.45,-0.14,0.39,5.46
6.441582918167114,4.04,-0.91,0.42,4.16
6.444141149520874,2.91,-1.99,0.89,3.63
6.445791959762573,2.65,-3.18,0.39,4.15
6.4630091190338135,3.5,-4.17,-0.83,5.5
6.464608907699585,5.35,-5.09,-2.22,7.71
6.467360019683838,7.3,-6.38,-3.53,10.31
6.470026016235352,7.53,-7.05,-3.96,11.04
6.527782201766968,7.2,-7.4,-4.0,11.07
6.529798984527588,7.23,-6.5,-3.16,10.22
6.531304121017456,8.5,-4.16,-2.81,9.87
6.534131050109863,9.6,-1.89,-4.03,10.58
6.536794900894165,8.88,0.2,-4.21,9.82
6.539427042007446,7.47,1.8,-3.65,8.5
6.541949987411499,7.81,2.13,-2.94,8.61
6.547611951828003,8.12,2.21,-1.19,8.49
6.557651996612549,5.51,1.95,-1.46,6.02
6.5677690505981445,0.36,1.04,-0.49,1.2
6.628247976303101,-5.84,0.57,1.91,6.17
6.6302690505981445,-9.9,-0.74,1.75,10.08
6.631803035736084,-10.12,-3.47,-0.95,10.74
6.634719133377075,-4.83,-8.09,-2.86,9.84
6.6373209953308105,-0.93,-13.71,1.31,13.8
6.64000391960144,2.42,-18.0,10.07,20.76
6.643140077590942,5.95,-15.82,7.35,18.43
6.646964073181152,6.23,-5.85,-0.88,8.59
6.6571619510650635,5.7,0.55,-5.27,7.78
6.667016983032227,4.35,6.25,-5.23,9.23
6.676757097244263,3.92,10.31,-6.48,12.79
6.733012914657593,4.35,10.44,-6.21,12.9
6.734860181808472,5.82,5.75,-3.84,9.03
6.736459970474243,5.54,1.09,-2.18,6.05
6.739289999008179,4.01,-1.85,-1.41,4.63
6.741949081420898,1.44,-3.44,0.92,3.84
6.74337100982666,-1.86,-3.84,2.02,4.72
6.746454954147339,-3.78,-3.47,1.6,5.37
6.756031036376953,-3.8,-2.48,0.99,4.64
6.7667930126190186,-3.25,-1.5,0.18,3.58
6.776015043258667,-3.0,0.13,-0.39,3.02
6.8323540687561035,-2.98,1.71,0.16,3.43
6.834176063537598,-2.85,2.56,0.8,3.91
6.836406946182251,-2.13,2.68,0.43,3.45
6.839100122451782,-0.73,1.72,-0.08,1.87
6.841633081436157,0.4,0.59,-0.1,0.71
6.84409499168396,0.72,-0.1,-0.11,0.73
6.845671892166138,0.74,-0.58,0.09,0.94
6.86193585395813,0.7,-0.87,0.48,1.21
6.865349054336548,0.34,-0.73,0.37,0.88
6.875308990478516,-0.02,-0.33,0.32,0.46
6.932181119918823,-0.28,0.02,0.2,0.34
6.933956861495972,-0.45,0.28,0.07,0.53
6.93553614616394,-0.39,0.4,0.09,0.56
6.9383580684661865,-0.26,0.41,-0.37,0.61
6.9410400390625,-0.09,0.35,-0.16,0.39
6.943710088729858,0.23,0.08,0.16,0.29
6.94543719291687,0.37,-0.09,0.21,0.43
6.963644981384277,0.09,-0.22,0.63,0.67
6.965327978134155,-0.29,-0.15,0.85,0.91
6.974867105484009,-0.67,0.19,0.36,0.78
7.031482934951782,-0.85,0.3,0.06,0.9
7.033292055130005,-0.96,0.2,0.45,1.07
7.035701036453247,-1.12,0.08,0.75,1.35
7.0383241176605225,-1.37,-0.24,1.05,1.74
7.040966033935547,-1.46,-0.39,1.41,2.06
7.043541193008423,-1.46,-0.19,1.78,2.31
7.0449888706207275,-1.47,0.13,2.11,2.57
7.063202142715454,-1.4,0.41,1.74,2.27
7.064743995666504,-1.4,0.42,1.17,1.87
7.073880910873413,-1.74,0.03,0.93,1.97
7.137662172317505,-1.96,-0.74,0.71,2.21
7.139440059661865,-2.03,-1.51,0.43,2.56
7.141711950302124,-1.77,-2.05,1.03,2.89
7.144374132156372,-1.23,-2.24,1.63,3.03
7.1459949016571045,-0.9,-2.26,1.84,3.05
7.162739038467407,-0.86,-2.27,2.16,3.24
7.164344072341919,-1.11,-2.42,2.42,3.59
7.167465925216675,-1.38,-2.71,2.66,4.04
7.170153856277466,-1.62,-3.12,2.85,4.52
7.17339301109314,-1.71,-3.74,3.37,5.31
7.236737966537476,-1.59,-4.73,4.18,6.5
7.2386791706085205,-1.38,-6.17,5.37,8.29
7.240171194076538,-1.24,-8.52,6.53,10.8
7.243628025054932,-2.33,-11.89,7.24,14.11
7.245227098464966,-4.9,-14.64,7.65,17.22
7.248121023178101,-7.33,-14.25,7.09,17.52
7.250623941421509,-8.71,-13.99,4.78,17.15
7.253308057785034,-7.27,-13.88,1.34,15.72
7.2626800537109375,-4.61,-11.36,-0.81,12.28
7.2728800773620605,-3.22,-7.08,-0.67,7.8
7.336127042770386,-1.89,-4.34,-0.26,4.74
7.337920904159546,0.45,-3.14,-1.01,3.32
7.340137004852295,3.53,-2.42,-2.16,4.79
7.342936992645264,6.26,-1.27,-4.11,7.59
7.34445595741272,7.7,-0.5,-3.72,8.56
7.3473060131073,8.06,0.31,-3.75,8.89
7.349846124649048,7.1,1.56,-3.44,8.04
7.352499008178711,4.2,2.13,1.0,4.81
7.362104177474976,1.65,1.74,3.95,4.62
7.372164011001587,1.04,1.04,3.21,3.53
7.435766935348511,0.86,1.01,3.68,3.91
7.43793511390686,-0.21,1.3,4.4,4.59
7.4394690990448,-1.85,1.79,5.01,5.63
7.442389011383057,-3.22,2.02,5.4,6.6
7.443899869918823,-3.59,2.14,6.07,7.36
7.447116136550903,-3.09,2.11,6.73,7.7
7.4497270584106445,-2.37,2.17,6.73,7.45
7.452071905136108,-1.54,2.32,6.11,6.71
7.4616379737854,-0.49,2.47,5.49,6.03
7.471092939376831,0.67,2.68,5.11,5.8
7.481343030929565,1.73,2.98,4.82,5.92
7.540194034576416,2.7,3.31,4.63,6.29
7.541985988616943,3.47,3.64,3.82,6.31
7.543547868728638,4.04,4.0,3.47,6.66
7.5462281703948975,4.6,4.25,3.24,7.05
7.548743009567261,5.03,4.48,2.81,7.29
7.551354169845581,4.73,5.0,1.99,7.16
7.554011106491089,4.28,5.2,1.83,6.97
7.5607750415802,4.34,5.06,2.12,6.99
7.5708091259002686,4.18,4.99,1.9,6.78
7.5807201862335205,3.58,4.85,1.73,6.27
7.639355897903442,3.15,4.42,1.91,5.75
7.641174077987671,3.18,3.87,1.66,5.27
7.642697095870972,3.53,3.4,1.03,5.0
7.645359039306641,3.75,3.02,0.74,4.87
7.662322998046875,3.97,2.48,0.34,4.69
7.663989067077637,4.6,1.81,-0.8,5.0
7.666632890701294,5.52,1.23,-1.97,5.98
7.669018030166626,6.3,0.79,-2.56,6.84
7.671689033508301,6.62,0.41,-2.67,7.14
7.679999113082886,6.97,0.32,-2.94,7.57
7.739236116409302,7.25,0.83,-4.24,8.43
7.741112947463989,6.19,1.59,-8.15,10.35
7.745352029800415,4.84,0.36,-8.91,10.14
7.747515916824341,7.28,-2.52,-15.11,16.96
7.763746976852417,10.04,-7.72,-10.42,16.4
7.765483140945435,8.44,-13.39,6.4,17.07
7.768294095993042,2.11,-10.77,8.47,13.86
7.77096700668335,-2.11,-2.44,3.68,4.89
7.773619890213013,-2.58,4.1,0.99,4.94
7.7789530754089355,-2.71,7.5,-1.26,8.07
7.839223146438599,-4.26,8.94,-2.52,10.21
7.841231107711792,-4.34,7.03,-1.52,8.4
7.842825174331665,-1.53,2.89,-1.31,3.52
7.844358205795288,2.15,1.51,0.61,2.69
7.862529993057251,4.79,1.69,1.89,5.41
7.864145040512085,5.7,2.96,-0.81,6.47
7.866880178451538,5.94,4.83,-3.62,8.46
7.86948299407959,6.3,4.46,-3.61,8.52
7.872161149978638,4.81,0.58,-1.64,5.11
7.878330945968628,1.76,-3.82,-2.39,4.83
7.9448559284210205,0.65,-7.45,-3.65,8.32
7.946645975112915,2.23,-8.36,-1.85,8.84
7.948939085006714,3.51,-4.6,-0.33,5.79
7.951673984527588,2.75,-0.25,-1.05,2.95
7.954338073730469,2.1,1.74,-1.93,3.34
7.956979990005493,2.19,2.13,-0.97,3.2
7.959558010101318,2.08,1.39,0.38,2.53
7.960993051528931,1.77,0.45,-0.29,1.84
7.967701196670532,1.72,0.0,-0.27,1.74
7.977707147598267,1.48,-0.5,0.16,1.57
8.044044017791748,0.95,-1.22,-0.11,1.55
8.046293020248413,0.42,-1.6,-0.58,1.75
8.047815084457397,0.58,-1.62,-0.62,1.82
8.050683975219727,1.02,-1.16,0.06,1.54
8.053307056427002,0.98,-0.35,-0.19,1.05
8.055942058563232,0.61,0.54,-0.58,1.0
8.058582067489624,0.39,1.1,-0.61,1.31
8.06113314628601,0.08,1.24,-0.51,1.34
8.067025899887085,-0.56,1.14,-0.63,1.41
8.07917308807373,-1.0,0.82,-0.83,1.53
8.143648862838745,-0.95,0.24,-0.43,1.07
8.145678997039795,-0.81,-0.3,-0.26,0.9
8.14720106124878,-0.84,-0.59,-0.38,1.09
8.149950981140137,-0.96,-0.51,-0.54,1.21
8.152640104293823,-1.31,-0.24,-0.15,1.34
8.155264139175415,-1.53,0.08,0.22,1.54
8.157854080200195,-1.55,0.27,0.2,1.58
8.160774946212769,-1.5,0.12,0.34,1.54
8.166328191757202,-1.1,-0.18,0.64,1.28
8.178650140762329,-0.72,-0.28,0.83,1.13
8.243062973022461,-0.48,-0.23,0.56,0.77
8.245198965072632,0.19,-0.16,0.57,0.62
8.24691104888916,0.74,-0.27,1.04,1.3
8.24973201751709,0.36,-0.56,0.86,1.08
8.252415895462036,-0.28,-0.59,0.54,0.84
8.254703998565674,-0.2,-0.14,0.48,0.53
8.257403135299683,0.29,0.27,0.18,0.43
8.260030031204224,-0.11,-0.16,0.07,0.2
8.265639066696167,-0.75,-0.4,0.55,1.01
8.275623083114624,-0.83,-0.32,0.23,0.91
8.285868883132935,-0.48,-0.4,0.02,0.62
8.347295045852661,-0.15,-0.39,0.4,0.57
8.349262952804565,-0.23,-0.04,0.19,0.3
8.350802183151245,-0.32,0.35,-0.1,0.48
8.353466033935547,0.14,0.51,0.09,0.53
8.356114149093628,0.4,0.57,0.41,0.8
8.358711957931519,-0.06,0.55,0.3,0.62
8.361231088638306,-0.04,0.42,0.23,0.48
8.364928960800171,0.57,0.13,0.67,0.88
8.380097150802612,0.7,-0.05,0.9,1.14
8.384780168533325,0.03,-0.09,0.74,0.74
8.446891069412231,-1.13,-0.17,0.86,1.43
8.448925018310547,-2.01,-0.49,0.51,2.13
8.450423955917358,-2.79,-1.09,-0.04,2.99
8.453445196151733,-3.61,-1.81,-0.1,4.03
8.456094980239868,-3.69,-2.63,0.3,4.54
8.458585023880005,-2.5,-3.66,1.02,4.54
8.460958003997803,-1.85,-4.63,0.89,5.06
8.464287996292114,-3.17,-5.21,0.23,6.1
8.481678009033203,-3.38,-5.43,-0.06,6.39
8.484080076217651,-1.79,-5.25,0.77,5.59
8.547661066055298,-1.45,-5.2,1.14,5.51
8.549620866775513,-1.47,-5.87,2.21,6.44
8.551108121871948,-0.06,-7.64,4.57,8.9
8.553828001022339,-0.52,-9.46,7.16,11.87
8.556226968765259,-3.1,-10.51,6.87,12.93
8.558804035186768,-5.16,-10.45,5.73,12.98
8.561189889907837,-6.75,-8.93,6.2,12.79
8.564087152481079,-9.47,-6.41,4.61,12.32
8.580960988998413,-13.15,-4.22,2.0,13.95
8.58374810218811,-13.45,-3.49,1.28,13.95
8.642826080322266,-10.09,-4.08,0.37,10.88
8.644850015640259,-5.56,-5.13,-2.98,8.13
8.646614074707031,-1.21,-7.3,-6.77,10.02
8.649336099624634,3.0,-10.53,-8.71,13.99
8.651939153671265,7.15,-13.13,-7.35,16.65
8.654664039611816,9.35,-12.2,-4.82,16.1
8.657356977462769,7.52,-6.94,-5.25,11.5
8.663408994674683,4.31,-1.82,-6.28,7.83
8.673113107681274,2.81,0.04,-4.58,5.37
8.683161973953247,1.9,-1.01,-1.97,2.91
8.748368978500366,-0.11,-2.38,-0.24,2.39
8.750158071517944,-3.3,-2.67,0.51,4.27
8.752527952194214,-6.12,-1.65,1.66,6.55
8.75513505935669,-7.63,-0.35,3.45,8.38
8.757845163345337,-8.49,0.98,4.63,9.71
8.760998964309692,-9.34,2.95,4.79,10.9
8.762503862380981,-9.57,5.23,4.71,11.87
8.780326128005981,-8.61,6.76,4.81,11.95
8.781924962997437,-7.12,7.54,4.47,11.29
8.785029172897339,-6.04,8.04,3.92,10.79
8.84746503829956,-5.23,7.86,3.51,10.07
8.849441051483154,-4.57,6.95,3.28,8.94
8.850865125656128,-4.17,5.88,3.28,7.91
8.853461980819702,-3.45,5.16,3.11,6.94
8.856054067611694,-2.63,5.07,2.82,6.36
8.858561038970947,-2.29,5.45,2.37,6.36
8.860859155654907,-2.08,6.15,2.2,6.85
8.863128900527954,-1.85,6.92,1.85,7.39
8.88038420677185,-1.61,7.64,1.77,8.0
8.881986856460571,-1.3,8.18,1.7,8.45
8.946495056152344,-0.8,8.47,1.52,8.64
8.948468923568726,-0.3,8.55,0.9,8.6
8.949970006942749,0.26,8.42,0.05,8.42
8.952754020690918,1.13,7.95,-0.53,8.04
8.955363988876343,2.06,7.27,-1.01,7.62
8.957983016967773,2.9,6.44,-1.88,7.3
8.961127996444702,3.71,5.67,-2.7,7.29
8.962625980377197,4.75,4.99,-3.33,7.65
8.98037314414978,6.04,4.27,-3.85,8.33
8.981953859329224,6.93,3.63,-3.92,8.75
9.045894861221313,7.36,2.99,-4.24,9.0
9.047883033752441,7.21,2.96,-10.1,12.75
9.049367189407349,6.57,3.1,-15.61,17.21
9.052190065383911,10.24,1.66,-18.81,21.48
9.054864168167114,18.81,-4.47,-11.3,22.39
9.057193994522095,22.41,-17.08,13.81,31.37
9.059746980667114,8.26,-14.33,8.18,18.45
9.061222076416016,-3.14,-2.22,1.95,4.31
9.070137977600098,-6.04,4.96,-1.13,7.89
9.080342054367065,-5.98,8.73,-7.37,12.89
9.090326070785522,-6.5,10.49,-7.8,14.59
9.149605989456177,-4.18,6.48,-1.54,7.86
9.151382207870483,0.5,-0.94,4.25,4.38
9.153801202774048,4.38,-4.34,2.8,6.77
9.156517028808594,5.88,-4.1,-0.1,7.16
9.159210920333862,4.2,-2.57,0.39,4.93
9.161732912063599,2.73,-1.79,-1.1,3.44
9.163357973098755,2.84,-1.29,-1.66,3.53
9.180109024047852,2.53,0.17,-0.81,2.66
9.18166208267212,2.12,1.36,-0.66,2.6
9.189180135726929,2.07,1.07,-1.64,2.84
9.24892807006836,2.54,-0.38,-1.4,2.92
9.250902891159058,2.68,-1.22,-0.97,3.1
9.25237488746643,2.21,-1.27,-0.76,2.65
9.25520920753479,2.12,-1.23,0.11,2.45
9.25792407989502,1.76,-1.06,0.25,2.06
9.260420083999634,1.3,-0.63,0.02,1.44
9.26186490058899,0.87,-0.07,0.07,0.87
9.268647909164429,0.73,0.16,0.17,0.76
9.27924108505249,1.37,0.05,-0.14,1.37
9.288923978805542,2.28,-0.19,-0.17,2.29
9.34867787361145,2.97,-0.43,-0.34,3.02
9.350674867630005,3.01,-0.51,-0.68,3.12
9.352163076400757,2.51,-0.46,-0.64,2.63
9.354963064193726,1.65,-0.3,-0.89,1.89
9.357650995254517,0.71,-0.1,-1.11,1.32
9.360121965408325,0.05,0.01,-0.64,0.64
9.36155915260315,-0.36,0.04,-0.63,0.72
9.368024110794067,-0.69,0.1,-0.71,0.99
9.377878904342651,-0.95,0.38,-0.25,1.05
9.388244867324829,-1.08,0.72,0.38,1.35
9.44837498664856,-1.23,0.77,0.53,1.54
9.450329065322876,-1.23,0.73,0.35,1.47
9.451666116714478,-0.95,0.58,0.54,1.23
9.454493999481201,-1.15,0.43,0.77,1.44
9.457214117050171,-1.51,0.2,0.64,1.65
9.45982813835144,-1.35,-0.11,0.56,1.46
9.461265087127686,-0.99,-0.48,0.86,1.39
9.46735692024231,-0.75,-0.66,1.18,1.54
9.477275133132935,-0.64,-0.49,1.22,1.46
9.487486124038696,-0.56,-0.19,0.83,1.01
9.552845001220703,-0.87,0.13,0.53,1.02
9.554837942123413,-1.22,0.11,0.12,1.23
9.556370973587036,-1.23,0.2,-0.04,1.24
9.559427976608276,-0.7,0.07,0.26,0.75
9.561984062194824,-0.22,-0.31,0.58,0.69
9.56355595588684,-0.21,-0.29,0.43,0.55
9.57982087135315,-0.55,-0.31,0.38,0.73
9.581505060195923,-0.87,-0.43,0.82,1.27
9.584205865859985,-1.36,-0.55,0.85,1.69
9.586889028549194,-1.78,-0.69,0.27,1.92
9.651456117630005,-1.85,-0.89,-0.31,2.07
9.653465032577515,-2.3,-1.16,-0.83,2.7
9.654942989349365,-2.45,-1.68,-0.26,2.98
9.65769100189209,-1.6,-2.53,0.57,3.04
9.66013789176941,-1.34,-2.87,0.24,3.17
9.661558866500854,-1.2,-2.96,0.24,3.2
9.664520025253296,-0.68,-3.63,1.5,3.98
9.666900873184204,-0.24,-4.47,1.86,4.84
9.67600703239441,-0.45,-4.77,1.79,5.11
9.686168909072876,-1.38,-4.91,2.23,5.56
9.751601934432983,-2.53,-5.56,2.91,6.76
9.753612041473389,-4.03,-6.38,2.75,8.03
9.755192995071411,-5.55,-6.5,3.31,9.16
9.758025884628296,-7.06,-6.2,3.85,10.15
9.760529041290283,-8.94,-5.49,3.2,10.96
9.761996984481812,-10.4,-4.67,2.47,11.66
9.765023946762085,-10.63,-4.12,2.13,11.59
9.767668962478638,-10.22,-3.78,0.91,10.93
9.775142908096313,-9.34,-3.69,-1.91,10.22
9.785473108291626,-5.58,-4.28,-4.54,8.37
9.85021185874939,-0.56,-5.57,-6.41,8.51
9.852179050445557,2.57,-7.34,-8.24,11.33
9.853780031204224,4.7,-9.69,-6.04,12.34
9.856568098068237,6.45,-11.54,-2.96,13.54
9.859271049499512,5.94,-9.38,-3.47,11.63
9.86201000213623,3.19,-5.01,-4.1,7.21
9.863539934158325,1.56,-2.9,-2.77,4.3
9.880964994430542,0.57,-2.68,-1.17,2.97
9.882636070251465,-0.67,-2.31,-0.81,2.53
9.885398149490356,-2.13,-1.89,-1.07,3.04
9.894438028335571,-3.42,-1.56,-0.52,3.79
9.955195188522339,-4.49,-1.59,0.73,4.81
9.957049131393433,-5.94,-1.05,1.77,6.28
9.958654165267944,-7.05,0.2,2.09,7.35
9.962127923965454,-7.29,1.48,2.4,7.81
9.963847875595093,-6.97,2.45,2.89,7.93
9.98003888130188,-6.53,3.12,3.38,7.98
9.981602907180786,-6.08,3.52,3.51,7.85
9.984345197677612,-5.7,4.05,3.31,7.73
9.986968994140625,-5.06,4.55,3.04,7.45
9.993623971939087,-4.2,4.88,2.99,7.09
10.05476999282837,-3.66,4.9,3.1,6.85
10.056566953659058,-3.7,4.42,3.13,6.55
10.058090925216675,-3.79,3.77,3.18,6.22
10.060989141464233,-3.58,3.4,3.25,5.91
10.062476873397827,-3.09,3.39,3.11,5.54
10.065494060516357,-2.53,3.69,2.92,5.34
10.068133115768433,-2.2,4.34,2.84,5.63
10.073065996170044,-1.91,5.17,2.74,6.15
10.083379030227661,-1.53,5.89,2.57,6.6
10.093304872512817,-1.31,6.31,2.41,6.88
10.154659032821655,-0.98,6.36,2.17,6.79
10.15646505355835,-0.65,6.28,1.8,6.56
10.158743143081665,-0.43,6.14,1.51,6.33
10.161821126937866,0.11,6.01,1.21,6.13
10.163388013839722,0.97,5.96,0.44,6.05
10.18022608757019,1.87,5.84,-0.04,6.13
10.18183708190918,3.12,5.52,-0.38,6.35
10.184617042541504,4.22,5.12,-1.49,6.8
10.187282085418701,4.79,4.53,-2.19,6.94
10.192138910293579,5.19,3.94,-2.19,6.87
10.253743886947632,5.53,3.72,-2.44,7.09
10.25574517250061,5.77,3.95,-2.72,7.5
10.25727915763855,5.8,4.46,-2.5,7.73
10.260194063186646,5.82,5.24,-2.32,8.16
10.261656045913696,6.23,6.24,-3.71,9.56
10.264155149459839,7.06,7.92,-13.26,16.98
10.266821146011353,8.77,9.8,-23.61,27.02
10.271697044372559,13.78,7.21,-17.51,23.41
10.281816005706787,14.47,-4.55,14.81,21.19
10.291918992996216,7.76,-13.08,14.82,21.23
10.355952978134155,0.72,-10.8,-9.3,14.27
10.357738018035889,-0.05,-3.74,-11.78,12.35
10.36001205444336,-0.01,-1.99,2.86,3.48
10.362868070602417,-1.94,-4.93,5.88,7.91
10.364485025405884,-3.78,-4.05,-6.15,8.27
10.381105184555054,-1.24,1.02,-2.61,3.06
10.38281512260437,3.01,4.32,3.41,6.27
10.385529041290283,2.83,5.1,-1.4,5.99
10.388211011886597,1.14,3.39,-3.74,5.17
10.390881061553955,2.16,-0.75,-0.2,2.29
10.454991102218628,4.01,-4.18,0.96,5.87
10.456991910934448,3.68,-4.78,-1.45,6.2
10.458493947982788,2.69,-2.86,-1.62,4.24
10.4620521068573,2.45,-1.07,-0.62,2.74
10.463685989379883,2.85,-0.42,-0.32,2.89
10.466350078582764,3.21,-0.02,0.28,3.22
10.46900486946106,2.62,0.48,0.7,2.75
10.471580982208252,1.75,0.78,0.96,2.14
10.48079514503479,0.91,0.8,0.62,1.36
10.490761041641235,0.44,0.56,0.55,0.89
10.555263042449951,0.32,0.19,0.62,0.72
10.557175874710083,0.63,-0.29,0.39,0.79
10.558788061141968,1.1,-0.68,-0.25,1.31
10.562047004699707,1.49,-0.75,-0.35,1.7
10.56351900100708,1.5,-0.67,-0.44,1.7
10.581367015838623,0.87,-0.53,-0.69,1.23
10.58304500579834,0.05,-0.18,-0.47,0.5
10.585386991500854,-0.51,0.21,-0.34,0.64
10.58771300315857,-0.91,0.43,-0.65,1.19
10.590144872665405,-1.42,0.45,-0.66,1.62
10.655295133590698,-1.56,0.4,-0.24,1.62
10.657118082046509,-1.55,0.43,0.13,1.61
10.658661127090454,-1.3,0.38,0.56,1.46
10.663564920425415,-0.97,-0.01,0.86,1.29
10.665309190750122,-0.88,-0.41,0.62,1.15
10.680881977081299,-0.84,-0.61,0.53,1.16
10.68250298500061,-0.76,-0.52,0.53,1.06
10.684900045394897,-0.63,-0.42,-0.08,0.76
10.687623977661133,-0.66,-0.16,-0.06,0.68
10.690401077270508,-0.75,0.47,-0.11,0.89
10.699449062347412,-1.14,0.98,-0.44,1.56
10.758790016174316,-1.51,1.1,-0.18,1.87
10.760609865188599,-1.5,1.0,0.26,1.82
10.76213002204895,-1.73,0.79,-0.09,1.9
10.765329122543335,-2.03,0.17,0.25,2.05
10.76780104637146,-1.92,-0.86,1.14,2.39
10.770421028137207,-1.64,-1.5,1.18,2.51
10.773082971572876,-1.3,-1.69,0.95,2.33
10.778277158737183,-0.74,-2.05,1.14,2.45
10.788094997406006,-0.77,-2.41,0.74,2.63
10.798192977905273,-1.42,-2.65,0.42,3.03
10.858926057815552,-1.69,-2.91,0.35,3.38
10.860748052597046,-1.71,-3.09,0.14,3.53
10.862243890762329,-1.83,-3.13,0.29,3.63
10.865252017974854,-2.13,-3.24,0.88,3.97
10.867943048477173,-2.68,-3.65,1.73,4.84
10.870524168014526,-3.65,-4.41,3.08,6.5
10.873180150985718,-4.88,-5.67,4.1,8.53
10.877500057220459,-6.45,-6.61,3.88,10.01
10.887912034988403,-8.19,-6.83,4.59,11.61
10.897512197494507,-10.09,-6.28,4.39,12.66
10.958862066268921,-10.98,-5.12,2.23,12.31
10.960677862167358,-10.77,-3.91,1.06,11.5
10.96218991279602,-9.88,-3.28,0.01,10.41
10.9653000831604,-8.05,-3.73,-2.28,9.16
10.968114137649536,-4.77,-5.03,-5.09,8.6
10.970651865005493,-0.54,-7.29,-5.98,9.44
10.973323106765747,3.66,-10.64,-6.71,13.1
10.97703504562378,7.31,-14.3,-6.03,17.15
10.98679518699646,8.54,-14.96,-3.6,17.59
10.996761083602905,5.99,-9.13,-2.42,11.18
11.058343172073364,2.66,-4.53,-2.45,5.79
11.060189008712769,1.64,-2.25,-2.61,3.81
11.061758041381836,1.24,-1.96,-1.45,2.73
11.06444001197815,0.43,-1.92,0.76,2.1
11.081350088119507,-1.3,-1.55,1.02,2.26
11.082975149154663,-3.55,-1.15,1.2,3.91
11.085424184799194,-5.58,-1.14,2.15,6.08
11.088118076324463,-7.1,-0.69,3.46,7.92
11.090778112411499,-8.1,0.79,4.61,9.35
11.096004009246826,-8.28,2.47,4.66,9.81
11.163806200027466,-7.65,3.79,4.21,9.51
11.165647983551025,-6.88,4.77,4.37,9.44
11.167886972427368,-6.14,5.3,4.33,9.19
11.170590162277222,-5.58,5.53,4.13,8.87
11.173352003097534,-5.07,5.49,3.76,8.36
11.175973176956177,-4.67,5.08,3.59,7.77
11.178909063339233,-4.19,4.28,3.69,7.03
11.180371046066284,-3.72,3.63,3.82,6.45
11.199172973632812,-3.13,3.48,3.66,5.94
11.200763940811157,-2.33,3.85,3.4,5.64
11.26255488395691,-1.61,4.56,3.33,5.87
11.26509404182434,-1.09,5.52,3.18,6.46
11.266578912734985,-0.63,6.65,2.86,7.26
11.269320011138916,-0.23,7.56,2.56,7.98
11.27197003364563,0.06,7.95,2.24,8.25
11.274616003036499,0.34,7.84,1.81,8.05
11.277230024337769,0.7,7.43,1.24,7.56
11.27957797050476,1.08,7.24,0.99,7.38
11.284748077392578,1.48,7.36,0.79,7.54
11.297352075576782,1.86,7.41,0.5,7.65
11.362429857254028,2.27,7.17,0.06,7.52
11.365018129348755,2.77,6.7,-0.7,7.28
11.366482019424438,3.29,5.87,-1.72,6.94
11.36930799484253,3.78,5.0,-1.96,6.56
11.371948003768921,4.5,4.51,-1.13,6.47
11.374619007110596,5.53,4.67,-0.99,7.3
11.377238988876343,7.0,5.9,-6.88,11.45
11.379626035690308,8.78,8.71,-23.27,26.35
11.384330987930298,15.18,8.72,-23.44,29.25
11.397467851638794,24.79,-2.81,1.6,25.0
11.46122407913208,24.16,-18.88,24.5,39.24
11.46325397491455,7.94,-14.91,2.95,17.14
11.464915037155151,0.14,-2.57,-7.9,8.3
11.46758508682251,-1.8,5.0,-13.06,14.09
11.47022008895874,-5.23,6.04,-1.22,8.08
11.472913026809692,-9.4,-0.08,7.55,12.05
11.475436925888062,-9.1,-4.5,-6.79,12.21
11.477893114089966,-1.73,-5.91,0.19,6.16
11.48343300819397,5.65,-3.62,4.28,7.95
11.493613004684448,5.32,0.07,-4.03,6.67
11.503470182418823,2.88,2.94,-3.66,5.5
11.565795183181763,3.42,3.01,-0.38,4.57
11.567807912826538,5.2,1.07,-0.69,5.35
11.569360971450806,4.23,-0.32,-2.4,4.87
11.572402000427246,2.93,-1.37,-2.25,3.94
11.57506012916565,2.52,-2.23,-1.47,3.67
11.57766604423523,2.02,-2.76,-0.26,3.43
11.579102993011475,0.84,-2.49,0.04,2.62
11.58278203010559,-0.56,-1.35,0.15,1.46
11.592820882797241,-1.28,-0.06,0.25,1.3
11.602769136428833,-1.35,0.94,0.17,1.65
11.66601014137268,-1.01,1.37,0.19,1.71
11.667991876602173,-0.6,1.28,0.16,1.42
11.669566869735718,-0.06,0.8,-0.03,0.8
11.672523021697998,0.62,0.23,0.13,0.67
11.674936056137085,1.25,-0.2,0.37,1.31
11.677551984786987,1.42,-0.47,0.39,1.54
11.680763006210327,1.12,-0.65,0.39,1.35
11.682831048965454,0.5,-0.55,0.29,0.79
11.699319124221802,-0.01,-0.24,0.03,0.24
11.701864004135132,-0.47,0.03,0.02,0.47
11.764928102493286,-1.26,0.15,0.27,1.29
11.76692509651184,-2.48,0.21,0.19,2.49
11.76840615272522,-3.35,0.24,0.47,3.39
11.771211862564087,-3.48,-0.02,0.82,3.57
11.773832082748413,-3.25,-0.26,0.94,3.39
11.776538133621216,-3.11,0.22,1.11,3.3
11.779310941696167,-2.91,0.37,0.78,3.03
11.781473875045776,-2.11,0.51,1.06,2.41
11.799360990524292,-1.36,0.51,1.0,1.76
11.80120301246643,-0.98,0.55,0.62,1.28
11.8645920753479,-0.81,0.52,0.81,1.25
11.866605043411255,-0.83,0.51,0.99,1.38
11.868112087249756,-0.79,0.46,0.74,1.17
11.870907068252563,-0.89,0.16,0.8,1.2
11.873532056808472,-1.33,0.07,0.9,1.6
11.876190900802612,-1.82,0.0,0.81,1.99
11.879317998886108,-1.77,0.02,0.89,1.98
11.881012201309204,-1.71,-0.02,0.89,1.92
11.899272203445435,-2.04,-0.15,1.09,2.31
11.900907039642334,-2.12,-0.51,1.13,2.45
11.969096899032593,-1.79,-0.84,0.83,2.14
11.971081018447876,-1.05,-1.17,0.94,1.83
11.972578048706055,-0.52,-1.57,0.81,1.84
11.975495100021362,-0.38,-1.84,-0.26,1.89
11.977965116500854,-0.02,-2.23,-0.35,2.25
11.979418992996216,0.14,-2.52,-0.47,2.56
11.982728004455566,0.36,-2.66,-1.33,2.99
11.985368967056274,0.83,-3.42,0.05,3.51
11.989804029464722,0.37,-4.41,0.98,4.53
12.000182867050171,-0.45,-5.05,1.19,5.2
12.068937063217163,-1.16,-5.6,1.67,5.95
12.07070517539978,-1.8,-6.09,1.81,6.6
12.072246074676514,-2.17,-6.19,1.55,6.73
12.074878931045532,-2.18,-5.98,1.87,6.63
12.077473878860474,-2.2,-5.84,2.71,6.8
12.079982042312622,-2.85,-6.22,3.07,7.49
12.081586122512817,-5.6,-8.29,3.22,10.5
12.099530935287476,-8.91,-10.74,4.79,14.75
12.101154088973999,-9.33,-10.98,2.31,14.59
12.104227066040039,-8.26,-6.53,-0.6,10.54
12.168533086776733,-8.86,-1.01,-2.24,9.19
12.170549154281616,-9.92,0.58,-2.47,10.23
12.172038078308105,-10.15,-0.27,-3.06,10.6
12.174885034561157,-10.27,-1.56,-3.7,11.02
12.177455186843872,-7.4,-3.5,-3.56,8.92
12.180125951766968,-1.58,-5.35,-6.12,8.28
12.181825876235962,4.61,-7.23,-8.25,11.89
12.199287176132202,8.22,-10.14,-5.85,14.3
12.200890064239502,6.71,-11.31,-2.69,13.42
12.203942060470581,3.19,-8.66,-3.55,9.88
12.268241167068481,1.41,-4.43,-4.45,6.43
12.27029013633728,1.68,-2.67,-2.89,4.27
12.27177119255066,0.72,-2.85,-1.43,3.26
12.274703979492188,-1.66,-2.55,-1.02,3.2
12.277269124984741,-3.73,-1.02,-0.15,3.86
12.279917001724243,-5.61,1.03,1.37,5.86
12.281407117843628,-7.56,2.34,6.3,10.11
12.298750162124634,-0.2,3.13,5.93,6.7
12.300333023071289,5.92,7.06,-5.63,10.79
12.303478956222534,-1.18,8.62,-3.85,9.51
12.30759596824646,-10.19,4.69,7.5,13.49
12.373473882675171,-9.52,1.44,7.85,12.42
12.37549090385437,-6.46,1.54,6.1,9.01
12.377013921737671,-5.22,3.83,7.92,10.22
12.380074977874756,-5.37,5.95,7.54,11.0
12.38162112236023,-5.57,5.94,3.7,8.94
12.398879051208496,-6.35,5.18,1.05,8.26
12.400468111038208,-5.64,5.07,4.42,8.77
12.403359174728394,-2.95,4.97,7.47,9.44
12.406040906906128,-1.44,4.87,6.29,8.08
12.40870213508606,-0.55,4.56,5.38,7.07
12.472868204116821,1.42,3.81,5.71,7.0
12.474830865859985,3.07,3.37,5.21,6.92
12.476321935653687,2.88,3.23,4.8,6.46
12.480436086654663,1.45,3.51,5.65,6.8
12.4825119972229,0.24,4.05,6.76,7.88
12.498444080352783,-0.8,4.7,6.73,8.24
12.500091075897217,-1.76,5.43,6.55,8.68
12.50288987159729,-2.83,6.0,6.78,9.48
12.505553960800171,-4.07,6.14,6.4,9.75
12.508113145828247,-4.97,6.0,5.84,9.73
12.572242021560669,-4.8,5.52,5.55,9.18
12.574225187301636,-3.72,4.38,4.87,7.53
12.575719118118286,-2.13,2.83,3.86,5.23
12.581295013427734,-0.2,1.24,2.96,3.21
12.583015203475952,2.14,-0.54,2.19,3.1
12.585690021514893,4.32,-2.74,1.65,5.37
12.588121175765991,6.63,-6.04,0.34,8.97
12.59077000617981,9.77,-10.55,-1.57,14.46
12.596104860305786,12.03,-13.5,-3.02,18.33
12.606065034866333,10.42,-10.79,-3.66,15.44
12.67281198501587,7.24,-5.45,-2.63,9.43
12.674844980239868,5.17,-2.11,-1.72,5.84
12.676429986953735,3.91,-1.53,-0.65,4.24
12.67975401878357,3.54,-2.65,2.29,4.97
12.681282043457031,4.1,-3.6,3.88,6.69
12.698309183120728,4.47,-3.08,0.46,5.44
12.699997186660767,5.14,-2.3,-1.36,5.79
12.702749967575073,6.42,-3.0,-1.19,7.18
12.70543885231018,6.85,-3.92,-2.96,8.42
12.707990884780884,7.27,-3.95,-3.26,8.89
12.776527166366577,7.93,-3.15,-2.19,8.8
12.778557062149048,7.78,-1.49,-2.41,8.27
12.780117988586426,7.35,0.04,-2.73,7.84
12.7830810546875,6.15,0.77,-3.33,7.03
12.785677194595337,3.34,0.25,-3.57,4.89
12.788300037384033,-0.07,-0.87,-1.2,1.48
12.790931940078735,-3.39,-2.08,0.54,4.01
12.793606042861938,-4.67,-2.93,-0.53,5.53
12.796508073806763,-3.97,-3.94,0.99,5.68
12.804271936416626,-3.6,-6.04,1.18,7.12
12.877008199691772,-6.09,-8.59,1.52,10.63
12.878817081451416,-5.05,-11.39,6.27,13.94
12.880325078964233,-0.42,-9.72,5.27,11.06
12.883352041244507,1.8,-2.94,1.25,3.66
12.88599705696106,2.32,2.34,-2.2,3.96
12.888621091842651,2.76,5.82,-3.96,7.56
12.891278982162476,3.64,7.61,-3.76,9.23
12.893954992294312,5.87,5.89,-3.56,9.04
12.896486043930054,7.31,2.61,-4.15,8.8
12.903645038604736,7.36,-0.11,-3.38,8.09
12.977604150772095,6.35,-1.85,-0.7,6.65
12.979430913925171,4.53,-2.8,0.12,5.32
12.980944871902466,1.97,-3.23,-0.35,3.79
12.983736038208008,-0.24,-3.3,0.92,3.43
12.986450910568237,-1.17,-2.8,1.54,3.4
12.989104986190796,-1.34,-1.68,-0.17,2.15
12.991635084152222,-0.9,-0.47,-1.38,1.71
12.994333982467651,-0.1,0.5,-0.61,0.79
12.99689793586731,0.47,0.96,-0.33,1.11
13.002861022949219,0.65,1.19,-0.92,1.63
13.077576875686646,0.84,0.81,-0.24,1.19
13.079369068145752,0.52,0.35,-0.06,0.62
13.080890893936157,-0.17,0.01,-0.64,0.66
13.083942174911499,-0.73,-0.23,-0.41,0.86
13.0866379737854,-1.11,-0.48,-0.1,1.21
13.089268922805786,-1.44,-0.6,-0.22,1.57
13.091917991638184,-2.03,-0.32,0.03,2.05
13.094573974609375,-2.36,0.06,0.34,2.38
13.097207069396973,-2.26,0.45,0.8,2.43
13.102259874343872,-1.9,0.75,1.11,2.32
13.115700960159302,-1.65,0.87,1.24,2.23
13.180816888809204,-1.17,0.66,0.99,1.66
13.182717084884644,-0.49,0.36,0.45,0.75
13.184303045272827,0.36,-0.09,0.74,0.82
13.18706488609314,1.02,-0.4,1.31,1.7
13.18969202041626,1.2,-0.35,1.56,1.99
13.1924569606781,1.14,0.09,1.67,2.02
13.19513201713562,0.7,0.45,1.61,1.81
13.196559190750122,0.12,0.44,1.58,1.64
13.201475858688354,-0.35,0.26,1.59,1.64
13.211414098739624,-0.85,-0.06,1.09,1.38
13.279701948165894,-1.04,-0.37,0.74,1.32
13.28208303451538,-0.69,-0.58,0.49,1.02
13.28356385231018,-0.11,-0.66,0.69,0.96
13.28652310371399,0.37,-0.51,0.71,0.94
13.28914499282837,0.49,-0.35,0.73,0.94
13.291543006896973,0.33,-0.47,0.81,0.99
13.294202089309692,-0.07,-0.9,0.65,1.11
13.296798944473267,-0.45,-1.44,0.86,1.73
13.300854921340942,-0.93,-1.98,1.14,2.46
13.31499695777893,-1.61,-2.21,1.24,3.0
13.381051063537598,-2.4,-2.15,1.34,3.48
13.382953882217407,-2.58,-2.07,1.85,3.78
13.38451600074768,-1.95,-2.06,2.53,3.8
13.387083053588867,-1.11,-2.13,3.14,3.95
13.389230966567993,-0.51,-2.22,3.5,4.17
13.391529083251953,-0.45,-2.41,3.39,4.18
13.39382815361023,-0.59,-2.96,3.17,4.37
13.396949052810669,-0.62,-3.85,3.78,5.43
13.400177001953125,-0.88,-5.09,4.86,7.09
13.417421102523804,-1.83,-6.78,5.38,8.84
13.484391927719116,-3.83,-8.83,4.82,10.76
13.486303091049194,-6.31,-10.98,5.0,13.61
13.48797607421875,-7.22,-11.43,5.7,14.67
13.490597009658813,-7.09,-10.23,4.95,13.39
13.492872953414917,-6.85,-10.82,3.26,13.21
13.495424032211304,-4.86,-9.65,1.45,10.9
13.49700403213501,-2.84,-7.38,0.02,7.9
13.50079894065857,-1.44,-5.72,0.19,5.9
13.50314211845398,0.32,-4.72,-0.11,4.73
13.509598970413208,1.94,-4.22,-1.28,4.81
13.584884881973267,2.71,-3.71,0.13,4.59
13.586902856826782,3.11,-2.85,1.11,4.36
13.58842396736145,3.61,-1.43,-0.49,3.91
13.591117143630981,4.17,0.68,-2.0,4.67
13.593692064285278,4.39,3.38,-3.03,6.31
13.596960067749023,2.62,6.0,0.67,6.58
13.598628044128418,-0.86,6.76,4.25,8.03
13.617746114730835,-3.6,5.3,4.13,7.62
13.619684934616089,-3.98,4.17,5.0,7.63
13.622358083724976,-3.85,4.36,6.86,8.99
13.691406011581421,-4.28,4.86,8.41,10.61
13.693474054336548,-4.88,4.74,8.26,10.7
13.694996118545532,-5.29,4.09,7.66,10.16
13.696595907211304,-5.2,3.32,7.66,9.83
13.699207067489624,-4.21,2.53,7.96,9.35
13.701699018478394,-2.98,1.92,7.7,8.47
13.70402216911316,-2.04,1.67,7.08,7.55
13.70649790763855,-1.18,1.73,6.76,7.07
13.70903992652893,-0.08,1.84,6.7,6.94
13.711521863937378,1.12,1.87,6.19,6.56
13.784178972244263,2.09,2.08,5.1,5.89
13.78596305847168,3.12,2.3,3.83,5.44
13.788186073303223,4.53,2.44,2.97,5.94
13.790741205215454,5.64,2.53,2.57,6.69
13.793214082717896,6.16,2.46,1.85,6.88
13.795603036880493,6.7,1.93,0.16,6.97
13.79709005355835,7.01,0.79,-0.86,7.1
13.80042815208435,6.79,-0.72,-0.58,6.85
13.802775144577026,5.87,-2.0,-0.05,6.2
13.807581186294556,4.89,-2.55,0.53,5.54
13.883807897567749,3.99,-2.62,1.24,4.93
13.885681867599487,3.53,-2.83,0.92,4.61
13.887204885482788,4.38,-3.35,0.07,5.51
13.889848947525024,5.54,-4.35,-0.59,7.06
13.892327070236206,6.05,-5.62,-0.71,8.28
13.894799947738647,5.35,-6.07,-0.46,8.1
13.897446870803833,4.56,-5.72,-0.48,7.33
13.899008989334106,4.42,-4.44,-0.56,6.28
13.917393922805786,5.1,-2.71,-1.35,5.93
13.919105052947998,6.37,-1.39,-2.94,7.15
13.922083139419556,7.39,-0.36,-5.2,9.04
13.990947008132935,7.2,0.36,-6.79,9.9
13.992825031280518,7.1,0.36,-7.64,10.43
13.994240045547485,6.53,0.42,-7.69,10.09
13.997297048568726,2.85,0.08,-1.22,3.1
13.999100923538208,-0.54,-2.07,2.1,2.99
14.016814947128296,-1.07,-5.31,0.71,5.46
14.01852798461914,-3.02,-7.17,0.28,7.78
14.02140998840332,-6.57,-7.62,0.22,10.06
14.02369999885559,-7.02,-7.24,2.94,10.5
14.026125192642212,-3.61,-4.82,5.7,8.29
14.097472906112671,0.39,-0.15,4.2,4.22
14.099479913711548,2.01,3.47,0.6,4.05
14.101011037826538,2.17,5.11,-3.7,6.67
14.117853879928589,3.01,5.35,-5.2,8.04
14.119500875473022,5.41,3.66,-5.37,8.45
14.122442960739136,7.6,0.24,-5.44,9.34
14.124995946884155,7.85,-2.99,-3.01,8.92
14.127541065216064,6.71,-4.07,-1.87,8.06
14.130756139755249,4.67,-2.7,-2.18,5.81
14.132446050643921,2.89,-1.36,-0.27,3.2
14.225274085998535,1.31,-0.74,0.25,1.52
14.227027177810669,-0.04,-0.14,-0.14,0.2
14.228663206100464,-0.87,0.17,-0.51,1.02
14.230908155441284,-1.43,0.16,-0.96,1.72
14.233932971954346,-1.54,0.16,-1.18,1.94
14.236195087432861,-1.09,0.31,-1.22,1.66
14.238919973373413,-0.31,0.46,-1.01,1.15
14.24143099784851,0.33,0.42,-0.84,0.99
14.244107007980347,0.88,0.29,-0.81,1.23
14.248143911361694,1.27,0.22,-0.67,1.45
14.319879055023193,1.26,0.24,-0.56,1.39
14.32172703742981,0.92,0.19,-0.64,1.13
14.32327914237976,0.2,0.08,-0.66,0.69
14.325981855392456,-0.75,0.05,-0.77,1.07
14.328898191452026,-1.64,0.2,-0.58,1.75
14.331547975540161,-2.33,0.39,-0.39,2.39
14.333184957504272,-2.75,0.48,-0.27,2.8
14.351524114608765,-2.75,0.54,-0.08,2.8
14.352988004684448,-2.54,0.57,0.02,2.6
14.355463981628418,-2.34,0.29,0.12,2.36
14.42771601676941,-1.88,-0.22,0.35,1.92
14.429651975631714,-0.86,-0.66,0.34,1.13
14.431341886520386,0.07,-0.61,-0.07,0.61
14.434199094772339,0.55,-0.34,0.04,0.64
14.436730146408081,0.68,-0.38,-0.07,0.78
14.439182043075562,0.65,-0.38,-0.15,0.76
14.441400051116943,0.34,-0.23,-0.05,0.41
14.444087028503418,-0.22,-0.15,0.04,0.26
14.446643114089966,-0.59,-0.09,0.28,0.65
14.448210000991821,-0.94,-0.12,0.08,0.95
14.520126104354858,-1.12,-0.13,-0.23,1.15
14.522127866744995,-1.17,-0.02,0.11,1.17
14.523743867874146,-1.07,0.06,0.4,1.14
14.526296854019165,-0.68,0.05,0.19,0.7
14.528815031051636,-0.39,0.03,0.08,0.39
14.5314040184021,-0.38,-0.04,0.41,0.56
14.533079862594604,-0.67,-0.11,0.67,0.95
14.550780057907104,-1.27,-0.17,0.54,1.39
14.55247712135315,-1.91,-0.35,0.65,2.04
14.554999113082886,-2.07,-0.77,0.93,2.39
14.628599882125854,-1.96,-1.19,0.78,2.42
14.631253957748413,-2.18,-1.46,0.43,2.65
14.633079051971436,-2.57,-1.79,0.67,3.2
14.635759115219116,-2.91,-2.27,0.45,3.71
14.638383150100708,-3.0,-2.74,-0.13,4.06
14.640724897384644,-2.98,-3.25,-0.06,4.4
14.643408060073853,-2.68,-3.66,0.41,4.55
14.64598798751831,-2.36,-3.8,1.13,4.61
14.647459030151367,-2.0,-4.05,1.6,4.79
14.650735139846802,-1.33,-4.57,2.3,5.28
14.722858190536499,-0.85,-5.07,3.43,6.17
14.724879026412964,-0.72,-5.18,3.68,6.39
14.726424932479858,-1.25,-4.76,3.79,6.21
14.72903299331665,-2.4,-3.92,3.61,5.84
14.731616973876953,-3.91,-3.08,2.94,5.78
14.733146905899048,-5.78,-2.54,1.92,6.59
14.750132083892822,-8.2,-2.27,0.69,8.53
14.751767873764038,-9.55,-2.31,-0.33,9.83
14.754460096359253,-9.96,-2.85,-1.31,10.44
14.756932020187378,-10.34,-3.97,-1.51,11.17
14.759610891342163,-9.73,-5.25,-1.39,11.14
14.831815004348755,-7.0,-6.15,-2.82,9.73
14.833837032318115,-3.08,-6.65,-4.62,8.66
14.835326910018921,0.96,-7.24,-6.31,9.65
14.850116968154907,4.72,-9.33,-7.99,13.15
14.851777076721191,8.01,-10.67,-8.21,15.66
14.854507207870483,8.88,-9.48,-5.49,14.1
14.857362985610962,6.79,-6.07,-3.38,9.71
14.860032081604004,3.7,-3.01,-4.33,6.44
14.862751007080078,2.03,-2.3,-4.53,5.47
14.864239931106567,1.56,-3.16,-2.39,4.25
14.937803983688354,0.76,-3.46,-1.19,3.73
14.939817190170288,-0.42,-3.13,-0.87,3.27
14.941303014755249,-2.0,-2.45,0.16,3.16
14.944059133529663,-3.86,-0.7,0.91,4.02
14.946592092514038,-5.61,1.25,1.77,6.01
14.948052167892456,-6.88,2.84,2.87,7.97
14.950844049453735,-7.31,4.15,3.6,9.14
14.953428030014038,-7.0,5.1,4.02,9.54
14.956034898757935,-6.46,5.86,3.97,9.58
14.958750009536743,-5.75,6.39,3.77,9.38
15.033632040023804,-4.91,6.64,3.57,8.99
15.035597085952759,-4.35,6.55,3.39,8.56
15.03705906867981,-3.73,5.84,3.2,7.63
15.050487995147705,-2.84,4.86,3.15,6.45
15.052130937576294,-2.17,4.19,3.34,5.78
15.054978132247925,-2.04,3.96,3.5,5.66
15.057556867599487,-2.2,3.94,3.36,5.62
15.060209035873413,-2.3,4.13,3.25,5.73
15.062962055206299,-2.16,4.59,3.28,6.04
15.06444501876831,-1.93,5.33,3.09,6.45
15.13976502418518,-1.82,6.09,2.8,6.94
15.141643047332764,-1.87,6.66,2.49,7.35
15.143139123916626,-1.76,6.94,2.35,7.53
15.145937204360962,-1.44,6.95,2.1,7.4
15.148542165756226,-0.78,6.78,1.68,7.02
15.150166988372803,0.17,6.71,1.34,6.84
15.166882038116455,1.24,6.57,0.78,6.73
15.168515920639038,2.21,6.24,-0.28,6.62
15.171570062637329,3.32,5.78,-0.93,6.73
15.17419695854187,4.33,5.25,-1.23,6.91
15.249677896499634,4.83,4.74,-1.77,6.99
15.251683950424194,4.86,4.3,-2.21,6.85
15.253155946731567,4.58,4.0,-2.44,6.55
15.256140947341919,4.46,3.8,-2.56,6.39
15.258785963058472,4.8,3.82,-2.96,6.81
15.261362075805664,5.61,4.01,-3.49,7.72
15.264466047286987,6.43,4.84,-12.04,14.48
15.265958070755005,6.27,5.37,-20.67,22.25
15.284012079238892,10.9,2.31,-13.93,17.83
15.285668134689331,16.08,-7.96,5.57,18.78
15.362262964248657,12.4,-17.55,12.1,24.66
15.364283084869385,2.26,-12.31,0.98,12.55
15.365811109542847,-2.14,-2.1,-1.65,3.42
15.368632078170776,-2.13,3.48,-4.11,5.79
15.371294975280762,-1.29,5.64,-4.16,7.12
15.373987913131714,-0.5,4.71,-0.95,4.83
15.376657009124756,-0.86,2.68,1.81,3.34
15.379335165023804,-1.2,2.33,0.37,2.64
15.381718873977661,-0.85,1.84,0.07,2.02
15.383320093154907,0.39,-0.37,0.26,0.59
15.473323106765747,1.33,-3.56,-1.85,4.22
15.475089073181152,2.5,-6.16,-1.05,6.73
15.47665810585022,3.99,-6.45,-0.24,7.58
15.479559183120728,3.95,-3.55,-1.2,5.44
15.482154130935669,3.05,-0.08,-1.48,3.39
15.483838081359863,2.48,1.59,-1.52,3.31
15.499871015548706,2.07,1.74,-1.19,2.95
15.501453161239624,1.82,0.83,-0.44,2.04
15.504539012908936,1.11,-0.07,-0.18,1.12
15.50712513923645,0.06,-0.22,0.15,0.27
15.584555864334106,-0.71,0.02,0.95,1.18
15.586704969406128,-0.94,0.2,0.58,1.12
15.588194131851196,-0.98,0.5,-0.13,1.1
15.591086149215698,-0.78,0.57,-0.05,0.96
15.593517065048218,-0.23,0.33,-0.57,0.69
15.596117973327637,0.52,0.11,-0.84,0.99
15.598589181900024,1.09,-0.13,-0.2,1.11
15.600180864334106,1.17,-0.22,-0.29,1.22
15.619472980499268,0.9,-0.08,-0.34,0.96
15.621092081069946,0.58,0.0,0.01,0.58
15.62384295463562,0.46,-0.16,-0.18,0.51
15.701004028320312,0.42,-0.33,-0.04,0.53
15.703047037124634,0.32,-0.51,0.11,0.61
15.70451807975769,-0.09,-0.54,0.08,0.55
15.70737910270691,-0.52,-0.59,-0.08,0.79
15.710024118423462,-0.87,-0.67,-0.52,1.21
15.712723016738892,-1.3,-0.72,-0.61,1.6
15.71523904800415,-1.42,-0.55,-0.29,1.55
15.716797113418579,-1.39,-0.24,-0.16,1.41
15.733856916427612,-1.31,-0.09,-0.23,1.33
15.73555302619934,-1.3,-0.15,-0.16,1.31
15.81314206123352,-1.18,-0.28,-0.03,1.21
15.815145015716553,-1.12,-0.34,0.29,1.2
15.816853046417236,-1.14,-0.25,0.44,1.24
15.81956696510315,-1.15,0.12,-0.03,1.15
15.82223916053772,-0.83,0.45,-0.38,1.01
15.824887037277222,-0.37,0.58,-0.29,0.74
15.82754111289978,0.21,0.79,0.0,0.81
15.829979181289673,0.36,0.78,-0.09,0.86
15.831430196762085,0.31,0.51,-0.36,0.69
15.834367990493774,0.46,0.16,0.25,0.54
15.911695003509521,0.26,-0.1,0.39,0.47
15.913640022277832,-0.35,-0.14,-0.16,0.4
15.915140867233276,-0.83,-0.2,-0.13,0.86
15.918041944503784,-1.04,-0.52,0.08,1.16
15.920706987380981,-1.19,-0.82,0.3,1.47
15.923404932022095,-1.52,-1.13,0.71,2.02
15.92597508430481,-1.92,-1.47,0.47,2.46
15.928649187088013,-2.2,-1.73,0.05,2.79
15.931196928024292,-2.33,-2.05,0.09,3.1
15.933889150619507,-2.14,-2.38,0.02,3.2
16.011812925338745,-1.89,-2.42,-0.17,3.07
16.01383090019226,-1.75,-2.28,-0.21,2.88
16.01533603668213,-1.52,-2.4,0.1,2.84
16.01818013191223,-1.25,-2.74,0.63,3.07
16.020787000656128,-1.33,-3.14,0.7,3.48
16.02342915534973,-1.75,-3.75,1.35,4.35
16.026099920272827,-2.69,-4.79,2.29,5.95
16.028801202774048,-4.13,-5.66,2.67,7.49
16.031548023223877,-4.99,-5.47,3.15,8.04
16.033817052841187,-5.33,-4.75,3.83,8.1
16.12723207473755,-6.37,-4.11,2.97,8.14
16.12910485267639,-8.05,-3.6,1.75,8.99
16.130781888961792,-9.61,-3.53,2.31,10.49
16.133460998535156,-10.4,-3.54,2.27,11.21
16.152445077896118,-10.35,-3.18,1.47,10.92
16.154067993164062,-9.78,-2.96,-0.89,10.25
16.15696692466736,-8.34,-3.79,-2.51,9.49
16.15944504737854,-5.02,-5.81,-4.86,9.08
16.162028074264526,-1.02,-8.5,-7.04,11.08
16.16509985923767,3.29,-11.28,-6.29,13.32
16.244904041290283,7.28,-14.23,-5.79,17.0
16.24696397781372,7.71,-13.83,-4.57,16.48
16.24851107597351,5.22,-8.34,-3.53,10.45
16.251569032669067,2.98,-3.04,-3.82,5.71
16.25420117378235,2.07,-1.35,-4.15,4.83
16.256946086883545,1.76,-2.09,-2.7,3.84
16.25955319404602,0.67,-2.58,-1.06,2.86
16.262269973754883,-1.3,-2.43,-0.57,2.81
16.26508903503418,-3.37,-2.27,0.38,4.08
16.266669034957886,-4.56,-2.12,1.5,5.24
16.361797094345093,-5.56,-1.11,2.42,6.16
16.363546133041382,-6.66,0.31,3.08,7.34
16.36504292488098,-7.07,1.78,3.59,8.12
16.36831307411194,-6.55,3.38,3.6,8.2
16.37087607383728,-5.79,4.68,3.56,8.25
16.373449087142944,-5.22,5.61,3.42,8.39
16.376082181930542,-5.15,6.44,3.25,8.86
16.378746032714844,-5.25,6.63,3.17,9.03
16.381874084472656,-4.9,5.98,3.3,8.4
16.383847951889038,-4.45,4.88,3.46,7.45
16.480215072631836,-4.28,3.87,3.64,6.82
16.48202395439148,-4.1,3.39,3.71,6.48
16.483697175979614,-3.74,3.54,3.71,6.34
16.486103057861328,-2.81,4.01,3.47,6.0
16.48885703086853,-1.84,5.02,3.1,6.18
16.49150013923645,-1.3,6.13,2.76,6.84
16.49414896965027,-0.9,6.88,2.53,7.38
16.496771097183228,-0.31,7.35,2.13,7.65
16.499216079711914,0.27,7.47,1.63,7.65
16.500699043273926,0.67,7.28,1.05,7.38
16.516550064086914,0.87,7.12,0.92,7.23
16.59880304336548,1.13,7.09,0.83,7.22
16.60146999359131,1.51,7.1,0.5,7.27
16.602930068969727,1.83,7.08,-0.19,7.31
16.60587191581726,2.24,6.94,-0.93,7.35
16.60844898223877,2.8,6.65,-1.14,7.3
16.611130952835083,3.27,6.38,-1.15,7.26
16.61361002922058,3.53,5.99,-1.09,7.03
16.615028142929077,3.72,5.55,-0.84,6.73
16.61845898628235,4.22,5.29,-0.91,6.82
16.621071100234985,5.27,5.44,-1.6,7.74
16.704307079315186,6.86,5.94,-2.79,9.49
16.706294059753418,7.85,7.42,-13.76,17.49
16.707808017730713,10.02,9.17,-24.3,27.83
16.7105610370636,17.01,4.51,-13.87,22.4
16.713253021240234,21.92,-12.91,13.91,28.99
16.715578079223633,12.6,-23.84,13.35,30.08
16.71782612800598,-0.41,-15.87,-2.76,16.11
16.734179973602295,-4.7,-5.74,-8.06,10.95
16.73576807975769,-6.29,1.19,-7.7,10.01
16.73862600326538,-5.53,2.86,2.58,6.73
16.822792053222656,-4.47,1.53,4.01,6.19
16.82468605041504,-1.12,2.28,-3.91,4.66
16.826197862625122,3.43,4.16,1.26,5.53
16.82904314994812,5.19,3.81,3.28,7.22
16.832128047943115,3.07,1.21,-3.66,4.92
16.833709001541138,2.35,-1.97,-2.3,3.83
16.850516080856323,4.44,-4.16,0.48,6.1
16.8521249294281,5.05,-4.5,-0.24,6.76
16.855129957199097,3.47,-3.11,-1.77,4.98
16.857872009277344,2.05,-1.59,-3.08,4.02
16.943438053131104,1.49,-0.49,-2.03,2.56
16.945447206497192,1.3,0.2,-1.25,1.81
16.946973085403442,0.82,0.81,-0.81,1.4
16.94854712486267,0.2,0.89,-0.04,0.91
16.951244115829468,-0.51,0.83,0.76,1.23
16.95380187034607,-0.98,0.73,0.75,1.43
16.956504106521606,-0.9,0.61,0.95,1.44
16.95890998840332,-0.39,0.35,0.51,0.73
16.96154499053955,0.53,-0.07,0.15,0.55
16.9639151096344,1.53,-0.42,0.08,1.58
17.04819893836975,2.17,-0.6,-0.19,2.25
17.050246000289917,2.22,-0.55,-0.43,2.32
17.051722049713135,1.87,-0.41,-0.79,2.07
17.05445098876953,1.25,-0.17,-0.97,1.59
17.05697512626648,0.34,0.23,-0.65,0.76
17.05962300300598,-0.75,0.41,-0.39,0.93
17.062304973602295,-1.41,0.44,-0.64,1.6
17.065370082855225,-1.65,0.49,-0.21,1.73
17.066921949386597,-1.66,0.5,0.2,1.74
17.06954598426819,-1.83,0.63,0.43,1.98
17.155444860458374,-1.7,0.72,0.72,1.98
17.15724205970764,-1.48,0.66,0.93,1.86
17.158729076385498,-1.47,0.5,0.85,1.77
17.1614990234375,-1.46,0.22,0.28,1.5
17.164058923721313,-0.97,-0.05,-0.07,0.97
17.165539026260376,-0.46,-0.39,0.08,0.6
17.168459177017212,0.17,-0.5,-0.42,0.67
17.171133041381836,0.3,-0.15,-0.43,0.54
17.17360806465149,0.23,0.53,-0.28,0.64
17.176239013671875,0.16,0.49,-0.48,0.7
17.26355814933777,-0.13,0.15,-0.21,0.28
17.265526056289673,-0.87,-0.13,0.31,0.93
17.267055988311768,-1.96,-0.22,0.4,2.01
17.269878149032593,-2.93,-0.22,0.8,3.04
17.2722430229187,-3.62,-0.28,1.19,3.82
17.27501893043518,-4.58,-0.42,1.42,4.81
17.27767300605774,-5.27,-0.72,1.47,5.51
17.280323028564453,-5.05,-1.28,1.71,5.48
17.282702207565308,-4.77,-1.77,1.8,5.39
17.284317016601562,-4.61,-1.84,1.2,5.1
17.38488507270813,-3.78,-1.52,0.78,4.14
17.386717081069946,-2.68,-1.48,0.41,3.08
17.38826608657837,-1.3,-2.02,-0.7,2.5
17.391090154647827,0.39,-2.85,-0.49,2.91
17.39376711845398,1.51,-3.78,0.77,4.14
17.396209001541138,1.79,-4.41,-0.16,4.76
17.398881196975708,1.84,-4.67,-0.2,5.02
17.400334119796753,1.71,-4.82,1.16,5.24
17.416853189468384,1.05,-4.8,1.8,5.23
17.418472051620483,-0.42,-4.55,2.38,5.15
17.421229124069214,-2.45,-4.31,2.98,5.78
17.509571075439453,-4.51,-3.98,3.53,6.97
17.511613130569458,-6.06,-3.33,3.31,7.66
17.51312804222107,-7.48,-2.83,2.13,8.27
17.515945196151733,-9.33,-2.74,1.75,9.88
17.517458200454712,-10.85,-3.0,1.88,11.41
17.534327030181885,-10.88,-3.24,0.98,11.39
17.535953044891357,-9.73,-3.3,-0.75,10.3
17.538742065429688,-7.54,-3.91,-2.31,8.8
17.54146099090576,-4.05,-5.33,-3.34,7.48
17.54412293434143,-0.56,-6.52,-6.17,8.99
17.633661031723022,2.79,-8.03,-7.9,11.6
17.63561511039734,7.03,-10.32,-7.53,14.58
17.63708806037903,10.26,-11.46,-5.02,16.18
17.652743101119995,9.15,-8.8,-2.4,12.91
17.654350996017456,4.96,-4.2,-3.54,7.4
17.657117128372192,2.57,-2.5,-4.51,5.76
17.659569025039673,1.68,-2.67,-1.83,3.64
17.662271976470947,0.4,-2.84,0.29,2.88
17.66490602493286,-1.24,-2.81,-0.27,3.08
17.666444063186646,-2.66,-3.24,-0.41,4.21
17.75657820701599,-4.09,-2.79,0.92,5.03
17.75864815711975,-5.89,-1.19,2.18,6.39
17.760156869888306,-7.12,0.19,2.76,7.63
17.762887001037598,-7.19,0.98,3.04,7.86
17.76584005355835,-6.48,1.49,3.39,7.46
17.767534971237183,-5.72,2.33,3.63,7.16
17.78668713569641,-5.11,3.26,3.63,7.06
17.788201093673706,-4.85,4.09,3.43,7.21
17.790776014328003,-4.62,4.62,3.16,7.25
17.793238878250122,-3.91,4.51,3.16,6.75
17.884459018707275,-2.95,4.03,3.06,5.85
17.886447191238403,-2.36,3.63,2.96,5.24
17.887913942337036,-2.41,3.39,3.19,5.24
17.890429973602295,-2.75,3.19,3.22,5.3
17.89311909675598,-2.81,3.1,3.24,5.29
17.89543318748474,-2.65,3.48,3.19,5.41
17.89795207977295,-2.46,4.3,3.16,5.87
17.899383068084717,-2.55,5.26,3.13,6.63
17.90256094932556,-2.77,6.05,3.06,7.32
17.905205965042114,-2.65,6.45,2.82,7.52
17.995906114578247,-2.14,6.43,2.71,7.29
17.99791407585144,-1.64,6.18,2.34,6.8
17.99942708015442,-1.27,5.94,1.9,6.36
18.002521991729736,-0.76,5.84,1.62,6.1
18.005057096481323,-0.05,5.84,1.19,5.96
18.007511854171753,0.64,5.9,0.45,5.95
18.0101900100708,1.44,5.85,-0.17,6.02
18.012829065322876,2.4,5.8,-0.2,6.28
18.015905141830444,3.43,5.69,-0.61,6.67
18.0175678730011,4.08,5.49,-1.77,7.06
18.123677968978882,4.17,4.99,-2.63,7.01
18.125493049621582,4.2,4.18,-2.65,6.49
18.127014875411987,4.21,3.45,-2.65,6.05
18.129514932632446,4.23,3.24,-2.49,5.88
18.132618188858032,4.64,3.58,-2.68,6.44
18.134193181991577,5.5,4.09,-3.16,7.54
18.153176069259644,6.21,4.73,-2.64,8.24
18.154863119125366,6.6,5.4,-1.68,8.69
18.157735109329224,6.48,6.25,-1.18,9.07
18.160309076309204,5.89,7.39,-1.57,9.57
18.25430417060852,4.8,9.51,-12.59,16.49
18.256232976913452,2.58,12.66,-20.86,24.53
18.257888078689575,2.99,8.75,-3.66,9.94
18.27014994621277,8.26,-11.59,19.0,23.73
18.271862983703613,8.41,-29.15,6.64,31.05
18.274665117263794,1.14,-29.81,-7.71,30.81
18.277249097824097,-10.35,-21.42,-6.64,24.69
18.279839038848877,-8.49,-5.79,-0.43,10.28
18.282896995544434,0.45,3.18,-0.33,3.22
18.285157918930054,6.13,8.74,0.97,10.71
18.391224145889282,7.75,10.66,-4.28,13.85
18.393063068389893,4.38,7.47,-2.84,9.11
18.39460587501526,1.28,2.93,0.76,3.28
18.397687196731567,1.93,-0.12,-0.34,1.96
18.400287866592407,3.16,-1.9,1.18,3.87
18.40192198753357,2.55,-3.76,2.81,5.34
18.418195009231567,0.86,-4.97,1.2,5.18
18.41980814933777,-0.07,-4.42,-0.49,4.44
18.422430992126465,0.24,-1.7,-0.02,1.71
18.42503809928894,0.67,0.78,0.21,1.04
18.4276921749115,0.71,1.87,-0.03,2.0
18.519819021224976,0.56,1.28,-0.72,1.57
18.52177906036377,0.23,0.44,-0.85,0.98
18.523267030715942,-0.26,0.09,-0.55,0.61
18.53647208213806,-0.81,0.2,-0.69,1.08
18.538079023361206,-1.06,0.47,-0.8,1.4
18.54117512702942,-0.62,0.29,-0.49,0.84
18.54359793663025,-0.08,-0.12,-0.27,0.3
18.54636788368225,-0.03,-0.33,-0.31,0.45
18.54887104034424,-0.15,-0.25,-0.16,0.33
18.55153203010559,-0.33,0.11,0.14,0.37
18.6439049243927,-0.7,0.45,0.41,0.92
18.64585304260254,-1.02,0.58,0.41,1.24
18.64721989631653,-1.06,0.45,0.37,1.2
18.649959087371826,-1.08,0.23,0.47,1.2
18.65139603614807,-1.28,-0.05,0.14,1.28
18.668150186538696,-1.71,-0.38,-0.01,1.75
18.66976308822632,-2.16,-0.67,0.66,2.35
18.672481060028076,-1.91,-0.74,0.77,2.18
18.67529320716858,-1.82,-0.71,0.75,2.09
18.677985906600952,-1.64,-0.38,0.65,1.8
18.769689083099365,-1.38,-0.19,0.32,1.42
18.77167797088623,-1.21,0.15,0.03,1.21
18.773205041885376,-1.04,0.33,0.39,1.15
18.786598920822144,-0.77,0.05,0.15,0.78
18.788217067718506,-0.49,0.03,0.43,0.65
18.79096817970276,-0.51,0.2,0.62,0.82
18.79367208480835,-1.01,0.33,0.59,1.21
18.796362161636353,-1.67,0.27,0.46,1.75
18.798974990844727,-2.07,0.01,0.26,2.08
18.800473928451538,-1.9,-0.32,0.2,1.93
18.891091108322144,-1.55,-0.54,0.13,1.64
18.89310908317566,-1.45,-0.69,-0.16,1.61
18.894574880599976,-1.37,-0.92,0.09,1.65
18.897489070892334,-1.42,-1.43,0.23,2.02
18.899946928024292,-1.19,-1.69,-0.04,2.06
18.901440858840942,-0.35,-1.72,0.19,1.76
18.919636964797974,0.6,-1.87,-0.27,1.98
18.921229124069214,1.43,-2.1,-0.08,2.54
18.92426609992981,1.92,-2.45,-0.19,3.11
18.926882028579712,2.27,-2.9,-0.04,3.68
19.016823053359985,2.44,-3.3,0.26,4.11
19.01876997947693,2.47,-3.42,0.04,4.21
19.020251989364624,2.35,-3.32,0.2,4.07
19.023118019104004,2.02,-3.27,0.65,3.89
19.025791883468628,1.59,-3.28,0.81,3.73
19.028435945510864,1.14,-3.8,0.93,4.07
19.031060934066772,-0.39,-5.17,0.05,5.18
19.033644914627075,-3.85,-6.57,1.44,7.74
19.035194158554077,-5.85,-6.88,1.85,9.21
19.051550149917603,-5.55,-4.21,-0.12,6.96
19.142214059829712,-5.95,-0.74,0.03,5.99
19.144203901290894,-8.34,0.77,-1.08,8.44
19.145758867263794,-11.15,0.76,-2.27,11.4
19.14874815940857,-11.15,-0.38,-3.34,11.64
19.150114059448242,-8.14,-3.09,-4.02,9.59
19.153022050857544,-3.27,-5.93,-5.21,8.54
19.15545105934143,1.51,-7.59,-6.18,9.9
19.157891035079956,5.79,-8.81,-6.27,12.26
19.160619974136353,8.34,-10.4,-4.91,14.2
19.16327691078186,7.33,-11.74,-4.83,14.65
19.254584074020386,2.71,-12.06,-6.87,14.14
19.256397008895874,-1.28,-10.08,-4.35,11.05
19.25859808921814,-2.88,-7.86,-1.52,8.5
19.26133108139038,-4.74,-6.33,-0.13,7.9
19.264047861099243,-6.97,-4.75,1.1,8.5
19.266698122024536,-8.84,-2.59,1.6,9.34
19.268194913864136,-9.89,0.03,2.87,10.29
19.285672903060913,-10.61,2.13,4.46,11.7
19.287389993667603,-11.44,3.66,4.6,12.86
19.290255069732666,-11.42,4.44,3.91,12.86
19.381603956222534,-10.46,4.68,4.25,12.22
19.38359808921814,-9.42,4.72,4.43,11.42
19.385268926620483,-8.62,4.73,3.78,10.53
19.387924909591675,-7.48,4.67,3.38,9.44
19.390411138534546,-6.15,4.25,3.55,8.27
19.393122911453247,-5.48,3.62,3.52,7.45
19.395742177963257,-5.13,2.75,3.63,6.85
19.39850902557373,-4.52,1.91,4.01,6.33
19.39993691444397,-3.84,1.71,4.51,6.16
19.403198957443237,-3.15,1.76,4.7,5.92
19.40585708618164,-2.59,1.95,4.8,5.79
19.4981369972229,-2.23,2.2,4.76,5.69
19.500115156173706,-2.03,2.45,4.65,5.63
19.501609086990356,-1.85,2.63,4.64,5.64
19.504507064819336,-1.56,2.62,4.5,5.43
19.50702691078186,-1.32,2.62,4.18,5.1
19.50942301750183,-1.18,2.58,3.88,4.8
19.51208519935608,-1.13,2.45,3.65,4.53
19.514795064926147,-1.13,2.19,3.47,4.25
19.517055988311768,-1.02,1.85,3.31,3.92
19.519113063812256,-0.83,1.51,3.11,3.55
19.624422073364258,-0.43,1.03,2.52,2.75
19.626209020614624,0.26,0.38,1.86,1.91
19.62777018547058,1.15,-0.45,1.37,1.84
19.63061785697937,2.27,-1.53,0.81,2.85
19.633437871932983,3.74,-2.73,-0.4,4.64
19.63492512702942,5.34,-3.63,-1.66,6.66
19.65173101425171,6.58,-3.78,-1.71,7.77
19.65340805053711,6.57,-3.32,-1.37,7.48
19.656224012374878,5.59,-2.72,-1.47,6.38
19.658801078796387,4.73,-2.3,-1.21,5.39
19.75179696083069,4.42,-2.24,-0.9,5.03
19.753742933273315,4.31,-2.54,-0.89,5.08
19.75522017478943,4.2,-3.12,-0.88,5.3
19.75807785987854,4.5,-3.71,-0.94,5.9
19.760760068893433,4.77,-3.87,-0.66,6.17
19.763363122940063,4.62,-3.97,-0.46,6.1
19.766581058502197,4.78,-4.14,-1.21,6.43
19.768143892288208,5.63,-4.11,-1.45,7.11
19.770670175552368,6.04,-3.4,-0.95,6.99
19.773344039916992,5.49,-2.01,-1.45,6.02
19.865365982055664,4.89,-0.85,-2.02,5.35
19.86731219291687,4.86,-0.25,-1.99,5.25
19.86894702911377,4.97,-0.11,-1.98,5.35
19.87172293663025,4.9,-0.31,-1.89,5.26
19.874282121658325,4.91,-0.24,-1.47,5.13
19.87705898284912,5.72,-0.13,-1.6,5.94
19.879714012145996,6.42,-0.2,-2.02,6.73
19.882228136062622,4.95,-0.46,-0.32,4.98
19.88367199897766,2.92,-1.4,1.65,3.63
19.88652014732361,0.14,-1.43,2.31,2.72
19.97853398323059,-3.17,-0.5,3.42,4.68
19.980611085891724,-4.24,0.08,4.81,6.41
19.982123136520386,-2.62,-1.84,6.05,6.84
19.98369288444519,-1.67,-4.73,3.31,6.0
20.00310492515564,0.01,-7.56,0.05,7.56
20.00473189353943,2.21,-10.57,-1.76,10.94
20.007614850997925,3.27,-11.37,-1.48,11.92
20.010195016860962,3.11,-7.33,-1.81,8.16
20.01250195503235,2.68,-1.35,-2.67,4.01
20.015125036239624,2.02,4.44,-3.33,5.9
20.10734486579895,2.24,8.52,-4.37,9.83
20.109193086624146,3.22,8.94,-4.95,10.71
20.111392974853516,4.44,5.18,-3.46,7.64
20.114075899124146,4.39,0.91,-1.25,4.65
20.116991996765137,2.93,-1.72,0.0,3.39
20.11847710609436,1.31,-3.46,0.59,3.74
20.13627004623413,0.0,-4.31,1.05,4.43
20.137880086898804,-0.48,-3.86,1.21,4.07
20.1403329372406,-0.64,-2.16,0.69,2.35
20.143004179000854,-1.12,0.21,-0.61,1.29
20.23609185218811,-1.1,1.88,-1.42,2.6
20.23806595802307,-0.22,2.42,-1.37,2.78
20.23959517478943,0.45,1.99,-1.04,2.29
20.242407083511353,0.57,0.83,-0.48,1.11
20.245063066482544,0.74,-0.32,0.57,0.98
20.24774193763733,0.71,-0.83,0.95,1.44
20.250319004058838,0.4,-0.73,0.8,1.15
20.251800060272217,0.36,-0.29,0.48,0.66
20.26957607269287,0.52,0.11,0.2,0.56
20.271260023117065,0.41,0.25,-0.36,0.6
20.363866090774536,0.14,0.19,-0.71,0.74
20.365938901901245,-0.23,0.03,-0.45,0.5
20.367457151412964,-0.57,0.01,0.03,0.57
20.370310068130493,-0.66,0.11,0.44,0.8
20.37307095527649,-0.71,0.23,0.34,0.82
20.375685930252075,-1.09,0.4,0.42,1.23
20.378326177597046,-1.28,0.29,0.57,1.43
20.38101887702942,-1.04,-0.05,0.35,1.09
20.38389301300049,-0.67,-0.45,0.32,0.86
20.38567805290222,-0.34,-0.43,0.25,0.6
20.402416944503784,-0.4,0.03,0.42,0.58
20.493442058563232,-0.44,0.29,0.33,0.62
20.495414972305298,-0.34,0.34,0.65,0.8
20.49699306488037,-0.31,0.16,0.95,1.01
20.500503063201904,-0.36,-0.01,1.34,1.38
20.50207805633545,-0.41,-0.16,1.54,1.6
20.520891904830933,-0.08,-0.26,1.45,1.47
20.522608041763306,0.36,-0.19,1.31,1.37
20.525662183761597,0.7,-0.07,0.84,1.09
20.5282199382782,0.73,0.1,0.38,0.82
20.530704021453857,0.44,0.3,0.05,0.53
20.62420105934143,0.38,0.34,0.48,0.7
20.625995874404907,0.49,0.22,0.76,0.93
20.628341913223267,0.63,0.1,0.81,1.03
20.63108801841736,0.62,0.05,0.54,0.82
20.6339590549469,0.33,0.0,0.19,0.38
20.635451078414917,-0.2,-0.13,-0.09,0.25
20.652530908584595,-0.83,-0.39,-0.64,1.11
20.65417218208313,-1.32,-0.73,-0.68,1.65
20.6568500995636,-1.39,-1.17,-0.05,1.81
20.659419059753418,-1.24,-1.37,0.41,1.89
20.750608205795288,-1.17,-1.33,0.64,1.88
20.753087043762207,-1.16,-1.26,0.98,1.97
20.75458312034607,-1.19,-1.4,1.38,2.29
20.757122039794922,-1.37,-1.83,1.25,2.6
20.75973105430603,-1.47,-2.42,1.43,3.17
20.762262105941772,-1.2,-3.08,1.85,3.78
20.764917135238647,-0.9,-3.72,2.1,4.36
20.767479181289673,-0.7,-4.42,2.7,5.22
20.768993139266968,-0.34,-5.24,3.89,6.53
20.784847021102905,0.11,-6.09,4.7,7.69
20.875242948532104,0.11,-7.0,4.88,8.53
20.877340078353882,-0.84,-8.17,5.29,9.76
20.87889313697815,-2.98,-9.51,4.42,10.9
20.881634950637817,-5.17,-10.62,3.49,12.31
20.884301900863647,-5.86,-11.11,3.4,13.01
20.885766983032227,-5.16,-10.48,1.95,11.84
20.90267586708069,-3.94,-8.62,0.3,9.48
20.904299020767212,-2.72,-6.08,-0.71,6.69
20.906836986541748,-1.81,-3.76,-0.96,4.28
20.909573078155518,-0.76,-2.12,-0.61,2.33
21.001975059509277,0.58,-1.03,-0.78,1.41
21.003947973251343,1.46,-0.15,-0.45,1.53
21.005430936813354,1.59,0.58,0.06,1.69
21.008490085601807,1.29,1.28,-0.4,1.86
21.011132955551147,0.67,2.42,0.09,2.51
21.013731002807617,0.43,3.79,0.39,3.83
21.016194105148315,0.03,5.05,1.41,5.24
21.017616987228394,-1.61,5.49,3.72,6.82
21.020643949508667,-3.09,4.56,4.92,7.38
21.023313999176025,-3.07,3.4,5.92,7.48
21.115710020065308,-2.54,2.87,6.65,7.67
21.117701053619385,-2.37,2.82,7.08,7.98
21.119241952896118,-2.12,2.68,7.29,8.05
21.122109174728394,-1.63,2.38,7.05,7.61
21.12476086616516,-1.07,1.96,6.63,6.99
21.127453088760376,-0.46,1.71,6.49,6.72
21.13008999824524,-0.1,1.87,6.42,6.68
21.132734060287476,-0.01,2.33,6.2,6.62
21.13421106338501,0.17,2.69,5.8,6.39
21.13709306716919,0.49,2.81,5.33,6.04
21.229431867599487,0.83,2.83,4.86,5.68
21.231475114822388,1.15,2.65,4.44,5.29
21.232948064804077,1.49,2.35,3.99,4.86
21.234494924545288,2.01,2.01,3.3,4.35
21.25284218788147,2.63,1.61,2.61,4.03
21.254417181015015,3.18,1.17,2.15,4.01
21.25716519355774,3.71,0.69,1.62,4.1
21.259796857833862,3.97,0.36,1.11,4.13
21.262591123580933,3.91,0.12,0.67,3.96
21.265350103378296,3.67,-0.02,0.42,3.69
21.35788893699646,3.43,0.12,0.27,3.44
21.35970187187195,3.21,0.26,0.2,3.22
21.36201500892639,2.93,0.18,0.05,2.93
21.364530086517334,2.77,-0.24,-0.09,2.78
21.367676973342896,2.57,-0.91,0.05,2.72
21.369472980499268,2.87,-1.57,0.23,3.27
21.387469053268433,3.5,-2.16,0.33,4.12
21.389153003692627,4.0,-2.69,0.31,4.83
21.39204716682434,4.5,-3.06,-0.17,5.44
21.394620180130005,4.93,-3.3,-0.17,5.93
21.39703917503357,4.84,-3.45,0.33,5.95
21.490029096603394,4.83,-3.25,0.36,5.83
21.491809129714966,4.74,-2.7,-0.14,5.45
21.49405312538147,5.35,-1.79,-1.14,5.75
21.496777057647705,6.5,-0.75,-2.35,6.95
21.499528169631958,7.14,0.11,-2.91,7.71
21.50100803375244,7.54,0.47,-3.28,8.23
21.504356145858765,7.98,0.29,-4.17,9.0
21.506937980651855,7.98,-0.18,-3.53,8.72
21.509340047836304,7.32,-0.62,-2.79,7.85
21.5120370388031,5.77,-1.04,-3.53,6.84
21.605929136276245,3.76,-0.85,-3.24,5.03
21.607922077178955,0.77,-0.38,2.11,2.27
21.60943293571472,-2.97,-1.12,2.63,4.12
21.61967396736145,-6.42,-1.6,-1.59,6.8
21.621474027633667,-10.82,-2.43,-1.9,11.25
21.624050855636597,-10.05,-6.08,-1.63,11.85
21.626764059066772,-2.63,-10.58,-2.41,11.16
21.629430055618286,3.62,-11.67,-0.27,12.22
21.632128953933716,3.94,-6.92,1.84,8.17
21.63486886024475,2.26,-1.41,-0.15,2.66
21.726099014282227,2.15,4.14,-2.27,5.18
21.727994203567505,3.02,8.61,-2.3,9.4
21.729583978652954,3.9,7.81,-2.25,9.01
21.731966018676758,4.29,3.53,-2.49,6.08
21.73488211631775,4.19,0.3,-2.5,4.88
21.736433029174805,2.91,-1.58,-2.07,3.9
21.75460696220398,1.46,-2.61,-1.37,3.28
21.756250143051147,0.5,-3.04,-0.64,3.14
21.758997201919556,-0.21,-2.75,0.18,2.76
21.76168704032898,-0.59,-1.9,0.53,2.05
21.85325002670288,-0.74,-0.82,0.02,1.1
21.855277061462402,-0.82,0.37,-0.32,0.95
21.856801986694336,-0.77,1.23,-0.03,1.45
21.859639883041382,-0.5,1.44,0.03,1.52
21.8622829914093,-0.16,1.44,-0.2,1.46
21.86469602584839,0.15,1.09,-0.3,1.14
21.867933988571167,0.41,0.38,-0.42,0.69
21.86940097808838,0.3,-0.08,-0.62,0.69
21.886399030685425,0.05,-0.28,-0.78,0.83
21.888027906417847,-0.1,-0.41,-0.46,0.62
21.979307889938354,-0.34,-0.4,-0.3,0.6
21.98133897781372,-0.68,-0.29,-0.05,0.74
21.982882976531982,-1.08,-0.17,0.5,1.2
21.98447299003601,-1.56,-0.18,0.9,1.8
21.98722815513611,-1.84,-0.18,0.89,2.05
21.98941206932068,-1.51,0.08,0.4,1.56
21.992011070251465,-0.53,0.17,-0.12,0.56
21.994675874710083,0.08,0.23,-0.09,0.25
21.99732804298401,-0.35,-0.03,0.24,0.42
21.999898195266724,-0.75,-0.41,0.38,0.93
22.089679956436157,-0.64,-0.87,0.09,1.08
22.09160304069519,-0.21,-1.06,0.22,1.1
22.093162059783936,0.0,-0.74,0.09,0.74
22.095936059951782,0.01,-0.28,-0.42,0.5
22.098608016967773,0.21,0.14,-0.3,0.39
22.101171016693115,0.79,0.08,-0.29,0.84
22.103325128555298,1.31,-0.13,-0.53,1.41
22.1203191280365,1.38,-0.17,-0.61,1.51
22.12188696861267,1.0,-0.33,-0.35,1.1
22.124573945999146,0.59,-0.62,0.14,0.86
22.21531891822815,0.17,-0.76,0.34,0.84
22.217247009277344,-0.4,-0.8,0.45,1.0
22.218770027160645,-0.98,-0.96,0.75,1.56
22.221562147140503,-1.39,-1.25,1.09,2.16
22.22426199913025,-1.8,-1.6,1.19,2.68
22.22690987586975,-2.18,-1.73,1.31,3.07
22.2295880317688,-2.24,-1.88,1.23,3.17
22.232156991958618,-2.49,-2.35,1.36,3.68
22.234761953353882,-2.8,-2.85,0.68,4.05
22.236377000808716,-2.81,-3.32,0.21,4.35
22.3406240940094,-2.38,-4.04,0.23,4.69
22.342403173446655,-1.77,-5.0,0.84,5.37
22.34394097328186,-1.44,-5.65,1.32,5.97
22.346842050552368,-1.37,-5.26,1.85,5.74
22.349682092666626,-1.27,-4.05,2.75,5.05
22.352231979370117,-1.44,-3.04,2.78,4.36
22.35385799407959,-2.01,-2.94,2.81,4.53
22.370457887649536,-2.97,-3.35,3.15,5.47
22.372050046920776,-3.91,-3.74,3.16,6.26
22.374831914901733,-4.77,-3.88,2.98,6.83
22.377464056015015,-5.81,-3.88,1.7,7.19
22.468008995056152,-6.91,-3.7,-0.18,7.84
22.47033715248108,-7.93,-3.47,-0.66,8.68
22.471786975860596,-8.64,-3.47,0.03,9.31
22.47443199157715,-8.18,-3.67,-0.01,8.96
22.47714114189148,-6.28,-3.91,-0.66,7.42
22.479801893234253,-3.73,-4.19,-2.2,6.02
22.48250699043274,-0.76,-4.89,-5.32,7.26
22.485088109970093,3.36,-5.81,-6.0,9.0
22.48687505722046,8.02,-6.84,-7.07,12.69
22.504744052886963,10.11,-7.05,-6.03,13.72
22.59480905532837,7.74,-5.76,-3.04,10.11
22.596813917160034,3.81,-3.54,-3.69,6.37
22.59837794303894,1.6,-2.44,-4.61,5.45
22.60160803794861,1.58,-2.27,-2.59,3.78
22.60311007499695,1.38,-2.62,-0.11,2.96
22.620143175125122,-0.1,-3.19,-0.23,3.19
22.621771097183228,-2.27,-3.44,-0.38,4.13
22.62456202507019,-3.91,-2.41,0.89,4.67
22.627259016036987,-4.47,-0.7,2.04,4.96
22.62980008125305,-4.52,1.11,2.48,5.27
22.72214913368225,-4.61,2.59,2.65,5.91
22.72402596473694,-4.4,3.34,2.66,6.13
22.725521087646484,-3.95,3.7,2.57,5.99
22.738173007965088,-3.54,4.07,2.63,6.0
22.739799976348877,-3.14,4.35,2.5,5.91
22.74253010749817,-2.81,4.36,2.27,5.66
22.745229959487915,-2.64,4.21,2.28,5.46
22.747776985168457,-2.09,4.05,2.19,5.05
22.750312089920044,-1.39,3.92,2.1,4.65
22.751825094223022,-1.24,3.98,2.11,4.67
22.84436798095703,-1.37,4.06,2.18,4.8
22.846370935440063,-1.47,4.19,2.22,4.96
22.847842931747437,-1.55,4.43,2.21,5.18
22.850605010986328,-1.69,4.73,2.16,5.46
22.8520929813385,-1.8,5.07,2.18,5.8
22.855026960372925,-1.86,5.4,2.03,6.06
22.857474088668823,-1.93,5.66,1.93,6.28
22.860082864761353,-1.69,5.66,1.81,6.17
22.862518072128296,-1.32,5.61,1.72,6.01
22.865216970443726,-1.04,5.49,1.55,5.79
22.957367181777954,-0.59,5.31,1.49,5.54
22.959131956100464,0.14,5.22,1.4,5.4
22.96133804321289,0.93,5.23,0.99,5.4
22.9637930393219,1.52,5.3,0.46,5.53
22.96619486808777,2.05,5.21,0.04,5.59
22.968857049942017,2.41,4.85,-0.06,5.41
22.971006155014038,2.66,4.31,-0.26,5.07
22.988583087921143,2.92,3.53,-0.63,4.62
22.990258932113647,3.0,2.68,-0.7,4.08
22.9932119846344,2.83,1.98,-0.67,3.51
23.085201025009155,2.76,1.64,-0.75,3.29
23.087639093399048,2.87,1.75,-0.79,3.45
23.089133977890015,3.02,2.1,-0.6,3.72
23.09206509590149,3.54,2.48,-0.64,4.36
23.094655990600586,4.44,2.8,-0.89,5.32
23.097245931625366,5.16,2.9,-1.06,6.01
23.099853038787842,5.47,2.8,-1.28,6.27
23.102434873580933,5.12,2.29,-4.83,7.4
23.104039907455444,5.35,0.52,-10.47,11.76
23.12049102783203,9.99,-3.43,-12.34,16.24
23.212055921554565,14.06,-13.55,1.59,19.59
23.214057207107544,9.18,-19.48,7.85,22.92
23.21563696861267,0.69,-8.41,1.77,8.62
23.21862006187439,-2.68,2.39,1.16,3.77
23.22013020515442,-2.9,7.38,-0.5,7.94
23.238784074783325,-3.7,10.19,-2.99,11.24
23.240411043167114,-4.59,9.58,-4.45,11.51
23.24334692955017,-3.29,4.75,-2.98,6.5
23.246034860610962,0.05,0.34,0.84,0.9
23.248722076416016,3.8,-1.77,2.47,4.86
23.341785192489624,5.89,-1.57,0.08,6.09
23.343558073043823,5.91,1.04,-2.23,6.4
23.34577202796936,5.23,2.07,-1.16,5.74
23.348243951797485,4.09,-0.84,0.18,4.17
23.350709199905396,1.75,-3.81,-0.49,4.22
23.352185010910034,-0.68,-4.66,-1.1,4.83
23.355375051498413,-0.95,-4.11,-0.9,4.31
23.35803508758545,0.08,-2.34,-0.18,2.34
23.360667943954468,0.47,-0.79,0.14,0.92
23.363306999206543,0.31,0.1,-0.74,0.8
23.365997076034546,0.45,0.75,-1.48,1.71
23.457930088043213,1.06,1.09,-0.55,1.61
23.459768056869507,1.34,1.25,-0.34,1.86
23.462058067321777,0.59,1.68,-0.8,1.95
23.464771032333374,-0.08,1.81,-0.75,1.96
23.46735906600952,-0.2,1.26,-0.7,1.45
23.46877694129944,0.43,0.21,-0.44,0.65
23.471986055374146,1.4,-0.79,-0.08,1.6
23.474581956863403,1.95,-1.32,-0.09,2.35
23.477247953414917,2.23,-1.36,0.18,2.61
23.479923009872437,2.31,-1.03,0.36,2.55
23.573899030685425,2.17,-0.49,0.26,2.23
23.57590413093567,1.93,-0.01,0.38,1.96
23.577393054962158,1.5,0.2,0.33,1.54
23.587365865707397,0.99,0.24,-0.17,1.03
23.589269876480103,0.8,0.16,-0.34,0.88
23.591819047927856,0.83,0.04,-0.25,0.86
23.594485998153687,0.76,-0.1,-0.35,0.84
23.597100019454956,0.64,-0.19,-0.34,0.74
23.599915027618408,0.32,-0.3,-0.22,0.49
23.602521181106567,-0.16,-0.34,-0.38,0.53
23.694012880325317,-0.46,-0.21,-0.49,0.7
23.69597315788269,-0.45,-0.1,-0.48,0.66
23.697531938552856,-0.42,0.06,-0.42,0.59
23.70017099380493,-0.39,0.13,-0.22,0.46
23.70276188850403,-0.45,0.12,-0.18,0.49
23.704295873641968,-0.66,0.01,-0.2,0.68
23.72179102897644,-0.78,-0.13,0.12,0.79
23.723490953445435,-0.7,-0.29,-0.03,0.75
23.726346015930176,-0.67,-0.51,-0.08,0.84
23.729018926620483,-0.83,-0.78,0.45,1.22
23.82231307029724,-1.01,-0.85,0.24,1.34
23.824280977249146,-0.93,-0.6,-0.33,1.15
23.825828075408936,-0.88,-0.27,-0.43,1.01
23.828552961349487,-1.07,-0.08,0.06,1.07
23.831120014190674,-0.99,0.05,-0.31,1.03
23.8336980342865,-0.7,0.13,-0.77,1.04
23.836205005645752,-0.47,-0.07,-0.23,0.52
23.837785959243774,-0.61,-0.37,0.41,0.82
23.855695962905884,-0.85,-0.57,0.47,1.12
23.857429027557373,-1.22,-0.81,0.61,1.58
23.951235055923462,-1.56,-1.04,0.7,2.0
23.953209161758423,-1.77,-1.24,0.56,2.23
23.954913854599,-2.08,-1.47,0.08,2.54
23.957441091537476,-2.58,-1.69,-0.16,3.08
23.959923028945923,-2.38,-1.86,-0.91,3.15
23.962530851364136,-1.31,-2.36,0.04,2.69
23.965107202529907,-0.43,-2.98,1.41,3.32
23.96766495704651,0.03,-2.92,0.94,3.06
23.969151973724365,0.52,-2.65,1.23,2.96
23.97234320640564,0.74,-3.06,1.37,3.43
24.06483292579651,-0.14,-3.73,1.28,3.94
24.066878080368042,-1.59,-4.02,2.18,4.84
24.068495988845825,-2.43,-3.8,2.33,5.07
24.070260047912598,-3.07,-3.64,2.23,5.25
24.089526891708374,-4.29,-4.03,2.65,6.45
24.091302156448364,-6.2,-4.53,2.1,7.96
24.09408402442932,-8.65,-4.71,2.36,10.12
24.09666085243225,-11.15,-4.27,3.23,12.36
24.099353075027466,-12.22,-3.52,2.02,12.87
24.102591037750244,-11.2,-3.44,-1.03,11.76
24.194674015045166,-9.05,-4.55,-2.62,10.46
24.19676399230957,-5.23,-6.05,-3.1,8.57
24.198376893997192,-1.1,-7.4,-6.62,9.98
24.201122999191284,2.9,-9.42,-7.32,12.27
24.202643156051636,7.46,-11.48,-5.4,14.71
24.20576500892639,9.64,-12.51,-4.32,16.37
24.20845103263855,7.57,-9.92,-4.16,13.15
24.21100401878357,3.86,-5.05,-4.41,7.73
24.213521003723145,1.6,-2.36,-3.98,4.89
24.216080904006958,0.47,-2.21,-2.04,3.04
24.309524059295654,-0.54,-2.53,-0.39,2.61
24.311336040496826,-2.33,-2.42,-0.19,3.36
24.313666105270386,-4.14,-2.24,0.29,4.71
24.316241025924683,-5.51,-2.07,1.68,6.12
24.319177865982056,-6.47,-1.08,2.54,7.03
24.320788145065308,-7.14,0.28,2.91,7.71
24.3389949798584,-7.32,1.49,3.37,8.19
24.340659856796265,-6.72,2.2,3.54,7.9
24.34361720085144,-5.91,2.65,3.54,7.38
24.345861196517944,-5.31,3.25,3.55,7.16
24.34850001335144,-4.9,3.91,3.57,7.21
24.44201111793518,-4.77,4.18,3.41,7.2
24.443945169448853,-4.95,3.81,3.5,7.16
24.445504903793335,-4.76,3.03,3.69,6.74
24.448436975479126,-4.38,2.5,3.56,6.17
24.45101499557495,-4.07,2.41,3.49,5.87
24.45248007774353,-3.56,2.54,3.47,5.58
24.45606017112732,-3.25,2.85,3.26,5.41
24.45866107940674,-3.16,3.4,3.14,5.6
24.461241960525513,-2.73,3.96,3.3,5.83
24.46378493309021,-2.28,4.5,3.22,5.98
24.55677819252014,-2.07,4.96,2.92,6.11
24.558767080307007,-1.86,5.29,2.67,6.21
24.560249090194702,-1.27,5.34,2.33,5.96
24.572048902511597,-0.92,5.37,2.07,5.82
24.573631048202515,-0.78,5.37,1.7,5.68
24.57610011100769,-0.37,5.36,1.22,5.5
24.578922033309937,0.35,5.42,0.67,5.47
24.58161997795105,1.0,5.61,0.48,5.71
24.584230184555054,1.58,5.75,0.46,5.98
24.586770057678223,2.41,5.83,-0.1,6.3
24.677993059158325,3.22,5.79,-0.71,6.66
24.679961919784546,3.79,5.35,-1.06,6.64
24.681518077850342,4.08,4.74,-1.46,6.42
24.684494972229004,4.2,4.07,-1.56,6.05
24.68592095375061,4.31,3.5,-1.45,5.73
24.68932008743286,4.73,3.27,-1.76,6.01
24.69197916984558,5.53,3.69,-2.44,7.08
24.694616079330444,6.48,4.57,-3.18,8.54
24.69726300239563,7.21,5.52,-2.97,9.55
24.699931859970093,7.54,6.27,-3.14,10.29
24.792392015457153,7.26,7.54,-13.46,17.05
24.794202089309692,7.21,9.58,-24.8,27.54
24.79652190208435,10.25,6.06,-10.03,15.56
24.799344062805176,14.37,-9.92,22.72,28.65
24.802720069885254,9.64,-25.19,10.64,28.99
24.80423092842102,-0.1,-21.96,-8.38,23.5
24.80706000328064,-5.56,-6.52,-9.64,12.89
24.809710025787354,-6.89,2.61,-0.98,7.43
24.812339067459106,-4.46,4.38,3.35,7.09
24.81500005722046,0.93,4.21,-2.32,4.89
24.907064199447632,5.91,5.09,-1.44,7.93
24.90906000137329,6.65,5.18,1.25,8.52
24.91053795814514,2.86,3.71,-1.88,5.04
24.913371086120605,1.22,0.21,-1.74,2.13
24.916059970855713,1.97,-3.46,0.94,4.09
24.919339895248413,2.68,-5.8,1.85,6.65
24.920851945877075,1.82,-5.87,0.63,6.17
24.9236900806427,1.02,-3.52,-0.93,3.78
24.926241159439087,1.06,-0.59,-1.16,1.67
24.92889094352722,1.65,1.2,-0.51,2.1
25.02096390724182,1.93,1.89,-0.32,2.72
25.022922039031982,1.42,1.59,-0.58,2.2
25.0243718624115,0.8,0.78,-0.32,1.16
25.027184009552002,0.13,0.11,0.15,0.22
25.02975106239319,-0.62,-0.27,-0.25,0.72
25.032278060913086,-1.12,-0.32,-0.35,1.21
25.034839868545532,-1.07,-0.3,-0.44,1.19
25.036258935928345,-0.53,-0.36,-0.53,0.83
25.03937005996704,0.05,-0.27,-0.45,0.52
25.04198718070984,0.56,-0.06,-0.45,0.72
25.133085012435913,0.79,0.06,-0.04,0.79
25.135076999664307,0.47,-0.03,0.15,0.49
25.136656045913696,-0.18,-0.21,-0.22,0.35
25.139801025390625,-0.52,-0.28,-0.36,0.69
25.142404079437256,-0.56,-0.23,-0.06,0.6
25.144947052001953,-0.49,-0.08,0.07,0.5
25.1474711894989,-0.49,0.13,0.3,0.58
25.14984703063965,-0.73,0.29,0.51,0.93
25.153090000152588,-1.18,0.37,0.38,1.29
25.1546950340271,-1.63,0.31,0.41,1.7
25.25971508026123,-1.63,0.04,0.53,1.71
25.261377096176147,-1.45,-0.28,0.13,1.48
25.262934923171997,-1.54,-0.54,0.21,1.64
25.26559805870056,-1.54,-0.64,0.07,1.66
25.26792001724243,-1.41,-0.48,-0.15,1.49
25.270568132400513,-0.85,-0.49,0.12,0.98
25.272914171218872,-0.02,-0.5,0.04,0.5
25.275580167770386,0.15,-0.53,0.09,0.55
25.278268098831177,-0.07,-0.52,0.11,0.53
25.280798196792603,-0.24,-0.34,0.3,0.51
25.283464193344116,-0.58,-0.36,0.3,0.74
25.374129056930542,-1.09,-0.59,0.53,1.34
25.376147031784058,-1.33,-1.0,0.33,1.69
25.377678155899048,-1.21,-1.3,0.14,1.78
25.380755186080933,-1.09,-1.47,0.38,1.86
25.38353705406189,-1.28,-1.6,-0.17,2.05
25.38643717765808,-1.1,-1.64,-0.29,1.99
25.388031005859375,-0.39,-1.57,0.2,1.63
25.405256032943726,0.09,-1.47,0.02,1.47
25.406859159469604,0.28,-1.4,0.13,1.43
25.409770011901855,0.38,-1.52,0.76,1.74
25.500341176986694,0.14,-1.84,0.93,2.06
25.50236201286316,-0.46,-2.35,1.27,2.71
25.5038959980011,-1.3,-3.26,1.89,3.98
25.506612062454224,-2.6,-4.36,2.25,5.55
25.50925087928772,-4.07,-4.92,2.95,7.03
25.511890172958374,-5.3,-4.96,2.77,7.76
25.51456618309021,-6.29,-4.89,3.33,8.63
25.517246961593628,-7.0,-4.77,2.95,8.96
25.519840002059937,-7.72,-4.31,1.8,9.02
25.52141308784485,-7.77,-3.6,1.39,8.67
25.625706911087036,-7.55,-3.03,-0.09,8.13
25.627496004104614,-7.2,-3.29,-1.3,8.02
25.62899088859558,-4.32,-4.32,-3.46,7.02
25.632002115249634,-0.39,-5.7,-5.42,7.87
25.634536027908325,3.61,-7.73,-4.72,9.75
25.63720393180847,6.97,-9.81,-4.45,12.83
25.638877153396606,7.77,-10.86,-2.76,13.63
25.671849966049194,5.82,-9.99,-2.02,11.73
25.673619031906128,3.52,-7.53,-3.62,9.06
25.676409006118774,2.58,-5.31,-3.53,6.87
25.76726508140564,1.94,-4.3,-2.04,5.13
25.769551038742065,0.64,-4.03,-0.98,4.19
25.771082162857056,-1.41,-3.12,-0.42,3.44
25.773937940597534,-3.6,-2.39,0.0,4.32
25.776686906814575,-4.68,-2.36,0.67,5.28
25.77930188179016,-5.54,-1.93,1.78,6.13
25.781939029693604,-6.12,-1.28,2.4,6.69
25.784621953964233,-6.27,-0.62,2.62,6.82
25.787256002426147,-6.34,0.29,2.85,6.95
25.788856029510498,-5.9,1.09,3.12,6.76
25.892466068267822,-5.29,1.76,3.42,6.54
25.89432406425476,-4.84,2.38,3.64,6.5
25.89588189125061,-4.46,2.87,3.57,6.39
25.89856791496277,-4.3,3.3,3.46,6.43
25.90126395225525,-4.26,3.6,3.58,6.62
25.90377116203308,-4.35,3.49,3.6,6.63
25.905370950698853,-4.33,3.28,3.54,6.48
25.922281980514526,-4.0,3.34,3.57,6.31
25.923915147781372,-3.72,3.51,3.35,6.11
25.926881074905396,-3.63,3.62,3.26,6.07
26.01627206802368,-3.38,3.81,3.11,5.96
26.018176078796387,-3.05,4.25,2.92,5.99
26.019625902175903,-2.61,4.62,2.77,5.98
26.021175146102905,-2.12,4.94,2.45,5.9
26.03852605819702,-1.59,5.17,2.12,5.8
26.040115118026733,-1.28,5.37,1.99,5.86
26.042528867721558,-1.17,5.46,1.87,5.88
26.045220136642456,-0.96,5.49,1.55,5.78
26.04793095588684,-0.47,5.64,1.15,5.77
26.050657033920288,0.18,5.68,0.56,5.71
26.14053511619568,0.73,5.7,0.03,5.74
26.14236617088318,1.52,5.73,-0.44,5.94
26.144706964492798,2.5,5.65,-1.07,6.27
26.147402048110962,3.38,5.31,-1.3,6.42
26.150044202804565,4.24,4.76,-1.54,6.55
26.153351068496704,4.99,3.95,-2.3,6.76
26.15484309196472,5.47,3.05,-2.24,6.65
26.157747983932495,5.82,2.44,-1.93,6.59
26.160392999649048,5.86,2.34,-2.21,6.68
26.163088083267212,5.77,2.77,-1.68,6.61
26.2535240650177,6.16,3.59,-1.41,7.26
26.25606894493103,6.88,4.48,-1.84,8.41
26.257534980773926,7.54,5.08,-1.62,9.23
26.26044797897339,7.99,5.44,-2.24,9.92
26.263115167617798,7.25,6.38,-11.1,14.71
26.265758991241455,5.81,6.82,-16.4,18.68
26.268436193466187,6.36,0.36,-0.74,6.41
26.270833015441895,7.76,-16.29,16.66,24.55
26.272504091262817,1.39,-29.43,2.29,29.55
26.28810715675354,-6.88,-16.92,-6.06,19.24
26.289666891098022,-7.33,-1.22,-3.75,8.32
26.38036298751831,-2.55,6.3,-1.26,6.91
26.382364988327026,3.62,9.48,0.69,10.17
26.383865118026733,8.86,8.13,-0.22,12.02
26.387057065963745,7.62,5.77,-0.82,9.59
26.388630151748657,2.24,4.23,0.59,4.82
26.407521963119507,-0.06,0.77,-0.32,0.83
26.409080982208252,0.11,-3.02,-0.32,3.03
26.411783933639526,1.21,-5.65,1.12,5.88
26.414528131484985,1.77,-6.55,0.59,6.81
26.417235136032104,1.13,-4.47,-0.14,4.61
26.50901508331299,0.61,-0.93,-1.35,1.74
26.510838985443115,0.77,1.37,-1.58,2.22
26.513071060180664,1.14,2.27,-0.89,2.69
26.51575803756714,1.35,1.89,-0.18,2.32
26.518485069274902,0.96,0.85,0.02,1.28
26.521074056625366,0.18,0.0,-0.07,0.19
26.522753953933716,-0.45,-0.43,-0.14,0.63
26.540756940841675,-0.37,-0.75,-0.03,0.83
26.542415857315063,0.08,-0.78,0.16,0.8
26.545397996902466,0.37,-0.43,0.09,0.57
26.635689973831177,0.6,-0.01,0.09,0.6
26.637542963027954,0.9,0.17,0.07,0.91
26.639207124710083,1.01,0.16,-0.02,1.02
26.641709089279175,0.91,0.0,0.01,0.91
26.6444251537323,0.58,-0.31,-0.03,0.65
26.647085905075073,0.16,-0.48,-0.16,0.53
26.649752855300903,-0.15,-0.44,-0.44,0.64
26.652347087860107,-0.29,-0.31,-0.16,0.45
26.653778076171875,-0.59,-0.25,0.01,0.64
26.656810998916626,-1.01,-0.14,-0.13,1.02
26.74689507484436,-1.37,0.01,0.18,1.38
26.748955011367798,-1.59,-0.14,0.46,1.66
26.750419855117798,-1.79,-0.47,0.35,1.88
26.75377917289734,-1.76,-0.66,0.48,1.94
26.755261182785034,-1.56,-0.56,0.68,1.79
26.773998975753784,-1.32,-0.24,0.84,1.58
26.775681018829346,-1.22,0.01,0.4,1.28
26.778519868850708,-1.23,0.15,0.19,1.25
26.781131982803345,-1.11,0.31,0.4,1.21
26.783712148666382,-1.09,0.28,0.26,1.15
26.87373995780945,-1.12,0.31,0.26,1.19
26.87537693977356,-1.2,0.49,0.51,1.39
26.877645015716553,-1.44,0.69,0.31,1.62
26.88019585609436,-1.5,0.78,0.29,1.71
26.882790088653564,-1.24,0.62,0.64,1.52
26.8853600025177,-0.99,0.21,0.84,1.31
26.887966871261597,-1.01,-0.18,0.87,1.34
26.889687061309814,-0.94,-0.46,0.75,1.28
26.907686948776245,-0.58,-0.63,0.8,1.17
26.909279108047485,-0.26,-0.7,0.78,1.07
26.9993999004364,-0.2,-0.81,0.68,1.07
27.00125813484192,-0.23,-0.89,0.15,0.93
27.00279211997986,-0.18,-1.11,0.21,1.14
27.004306077957153,-0.34,-1.66,0.02,1.69
27.023663997650146,-0.53,-1.99,-0.83,2.22
27.025313138961792,0.1,-1.93,-1.25,2.3
27.028259992599487,1.65,-1.8,-1.35,2.79
27.030707120895386,3.29,-1.73,-0.87,3.81
27.033334970474243,4.08,-1.73,-0.74,4.49
27.035842180252075,4.45,-1.84,-0.71,4.86
27.125356912612915,4.79,-2.56,-0.36,5.44
27.127340078353882,4.42,-4.67,0.04,6.43
27.12889003753662,3.27,-7.43,1.03,8.18
27.13174796104431,2.55,-8.86,1.01,9.27
27.134448051452637,2.26,-7.92,2.18,8.51
27.137240171432495,0.79,-5.67,2.43,6.21
27.138715982437134,-1.4,-3.57,2.14,4.39
27.157371997833252,-3.98,-1.69,0.3,4.33
27.158961057662964,-7.74,0.61,0.11,7.76
27.162015199661255,-11.94,2.03,-0.67,12.12
27.251399040222168,-12.96,0.97,-3.04,13.34
27.253373861312866,-10.41,-2.19,-2.5,10.92
27.25492000579834,-6.17,-5.61,-2.51,8.7
27.257704973220825,-2.42,-6.78,-4.31,8.39
27.26015305519104,-0.55,-6.46,-4.03,7.63
27.26280188560486,1.85,-6.97,-2.57,7.65
27.265494108200073,4.26,-7.72,-2.54,9.17
27.268166065216064,5.0,-7.32,-3.08,9.38
27.270742177963257,3.22,-6.01,-3.62,7.71
27.272324085235596,0.78,-5.53,-3.2,6.43
27.288973093032837,-1.41,-5.34,-2.08,5.9
27.37744903564453,-3.54,-4.9,-1.51,6.23
27.379464864730835,-5.68,-4.21,-0.24,7.07
27.381016969680786,-7.93,-3.1,1.31,8.61
27.383885145187378,-9.99,-1.83,1.79,10.31
27.386417150497437,-11.05,-0.51,1.89,11.22
27.387881994247437,-10.89,0.8,2.34,11.16
27.390830039978027,-10.06,2.12,2.98,10.7
27.393524885177612,-9.13,3.06,2.74,10.01
27.396178007125854,-8.19,3.44,2.47,9.22
27.39884901046753,-7.24,3.48,2.52,8.41
27.489948987960815,-6.25,3.2,2.78,7.55
27.491824865341187,-5.24,2.91,3.14,6.76
27.493426084518433,-4.38,2.48,3.32,6.02
27.506955862045288,-3.94,1.92,3.61,5.67
27.50868797302246,-4.0,1.47,3.82,5.72
27.51148009300232,-4.32,1.24,4.04,6.04
27.514064073562622,-4.55,1.35,4.1,6.27
27.51676297187805,-4.76,1.73,3.91,6.39
27.51936101913452,-5.0,2.3,3.87,6.72
27.52185297012329,-5.16,2.74,3.89,7.01
27.613560914993286,-5.22,3.01,3.85,7.15
27.615596055984497,-5.11,3.05,3.83,7.07
27.61721706390381,-4.75,2.95,3.62,6.66
27.619938135147095,-4.18,2.75,3.3,5.99
27.621485948562622,-3.38,2.46,3.09,5.19
27.624343156814575,-2.44,2.14,2.71,4.22
27.626983880996704,-1.49,1.77,2.29,3.25
27.629541158676147,-0.53,1.33,1.73,2.24
27.63203501701355,0.46,0.9,1.07,1.47
27.634680032730103,1.33,0.52,0.56,1.53
27.728266954421997,1.85,0.03,0.3,1.87
27.730165004730225,2.0,-0.62,0.08,2.09
27.73241400718689,1.98,-1.24,-0.34,2.36
27.734864950180054,2.24,-1.73,-0.76,2.93
27.737579107284546,2.64,-2.07,-0.77,3.44
27.739123106002808,2.86,-2.24,-0.92,3.74
27.75595998764038,3.15,-2.43,-1.56,4.27
27.75764298439026,3.6,-2.64,-1.96,4.87
27.760308980941772,4.16,-3.03,-1.67,5.41
27.76287817955017,5.0,-3.54,-1.92,6.42
27.856940984725952,5.66,-3.94,-2.54,7.34
27.858988046646118,5.71,-3.65,-2.22,7.13
27.86054015159607,5.76,-3.19,-2.1,6.91
27.86327600479126,6.29,-2.74,-2.11,7.17
27.86583113670349,6.9,-2.34,-2.34,7.65
27.868349075317383,7.07,-1.94,-2.21,7.65
27.87085199356079,6.94,-1.1,-0.64,7.05
27.87338614463806,6.64,0.19,-0.92,6.7
27.89135503768921,6.25,0.96,-1.64,6.53
27.893067121505737,5.69,0.79,-1.09,5.84
27.98895812034607,5.34,-0.07,-0.81,5.4
27.990921020507812,5.36,-1.03,-0.72,5.5
27.992443084716797,5.55,-1.17,0.38,5.68
27.995231866836548,5.77,-0.46,0.72,5.83
27.99782395362854,6.13,0.36,-0.15,6.14
28.000290155410767,6.58,0.36,-1.03,6.66
28.002636194229126,2.96,-0.22,0.99,3.12
28.005244970321655,-2.17,-1.18,1.54,2.91
28.007094144821167,-7.1,-1.6,2.96,7.85
28.04152202606201,-8.43,-3.8,6.34,11.21
28.141445875167847,-3.26,-8.21,4.42,9.87
28.14338207244873,-1.66,-11.87,-0.37,11.99
28.144996881484985,-2.25,-14.76,-0.24,14.93
28.147443056106567,1.78,-14.65,1.56,14.83
28.14998197555542,4.64,-9.0,1.92,10.3
28.1523220539093,4.27,-2.32,-0.19,4.86
28.154759168624878,2.83,4.11,-3.39,6.03
28.156612157821655,2.03,10.49,-5.98,12.24
28.174061059951782,3.29,13.66,-5.94,15.25
28.175676107406616,5.11,10.04,-5.38,12.48
28.270313024520874,6.1,3.72,-3.64,8.01
28.272345066070557,5.22,-0.27,-0.47,5.24
28.27445101737976,2.76,-2.59,0.36,3.8
28.27697491645813,-0.09,-3.98,0.92,4.08
28.27922511100769,-1.98,-4.82,2.51,5.78
28.281857013702393,-2.05,-4.77,2.76,5.87
28.28435707092285,-1.14,-3.39,0.87,3.68
28.286794900894165,-0.29,-0.84,-0.72,1.14
28.288480043411255,0.62,1.14,-0.78,1.51
28.291388034820557,1.45,1.76,-0.7,2.38
28.29366898536682,1.52,2.2,-1.18,2.92
28.38758897781372,1.69,1.78,-0.93,2.62
28.390881061553955,2.26,0.53,-0.29,2.33
28.392595052719116,2.49,-0.6,-0.15,2.56
28.395527124404907,2.2,-1.17,-0.24,2.5
28.398500204086304,1.45,-1.23,0.1,1.9
28.401124000549316,0.79,-1.17,0.0,1.41
28.404110193252563,0.45,-0.85,-0.35,1.02
28.406301975250244,-0.08,-0.12,-0.38,0.4
28.410463094711304,-0.59,0.42,-0.48,0.86
28.414857149124146,-0.97,0.64,-0.39,1.22
28.554320096969604,-1.22,0.71,-0.07,1.41
28.559072971343994,-1.23,0.69,-0.13,1.41
28.560890913009644,-1.03,0.6,-0.1,1.19
28.56398892402649,-0.83,0.32,0.24,0.92
28.568732976913452,-0.41,-0.07,0.23,0.47
28.571251153945923,0.09,-0.15,0.47,0.5
28.574054956436157,0.44,-0.05,0.71,0.83
28.576719999313354,0.3,0.08,0.67,0.73
28.579367876052856,-0.31,0.28,0.43,0.59
28.581815004348755,-0.97,0.33,0.36,1.08
28.707835912704468,-1.35,0.28,0.48,1.45
28.71014714241028,-1.46,0.48,0.81,1.73
28.711949110031128,-1.29,0.7,0.87,1.7
28.717066049575806,-0.96,0.71,1.06,1.59
28.719834089279175,-0.58,0.65,1.26,1.53
28.72272801399231,-0.19,0.55,1.27,1.39
28.72542905807495,0.25,0.28,1.28,1.33
28.74197006225586,0.58,-0.03,0.84,1.02
28.744274854660034,0.76,-0.22,0.94,1.22
28.746932983398438,0.96,-0.28,0.91,1.35
28.842730045318604,1.16,-0.1,0.52,1.27
28.844799995422363,1.05,0.18,0.04,1.06
28.84643292427063,0.6,0.24,-0.22,0.68
28.849034070968628,0.19,0.08,-0.53,0.56
28.851553201675415,-0.06,-0.17,-0.68,0.7
28.85524296760559,-0.2,-0.43,-0.39,0.61
28.857112169265747,-0.14,-0.71,-0.15,0.73
28.859532117843628,0.05,-0.91,0.07,0.91
28.86218810081482,0.3,-1.15,0.48,1.28
28.86463713645935,0.47,-1.44,0.74,1.68
28.957025051116943,0.52,-1.64,0.95,1.96
28.958991050720215,0.48,-1.74,0.96,2.04
28.960502862930298,0.26,-1.96,1.29,2.36
28.96321702003479,-0.29,-2.3,1.03,2.53
28.96585702896118,-0.95,-2.64,1.18,3.04
28.968374013900757,-1.5,-3.08,1.62,3.78
28.971688985824585,-2.15,-3.81,2.12,4.86
28.9733989238739,-2.7,-4.81,2.51,6.06
28.97622799873352,-2.83,-5.81,3.47,7.33
28.97869300842285,-2.8,-6.71,4.31,8.45
29.0776469707489,-3.09,-7.43,4.22,9.08
29.079561948776245,-3.38,-8.02,4.77,9.92
29.08112120628357,-3.32,-8.74,5.69,10.94
29.083747148513794,-3.42,-9.36,6.15,11.71
29.086331129074097,-3.87,-9.44,5.96,11.81
29.08885097503662,-4.37,-9.08,4.78,11.15
29.090429067611694,-4.4,-8.27,2.58,9.71
29.10773015022278,-3.35,-7.23,1.56,8.11
29.109402894973755,-2.78,-5.79,-0.32,6.43
29.11230707168579,-3.04,-4.19,-1.19,5.31
29.203912019729614,-2.69,-3.19,-0.2,4.17
29.205965995788574,-1.59,-2.47,-0.29,2.95
29.208323001861572,-0.19,-1.66,-0.74,1.82
29.210707902908325,1.3,-0.75,-0.75,1.67
29.213266134262085,2.91,0.11,-2.22,3.66
29.215760946273804,3.86,1.06,-2.79,4.87
29.218261003494263,3.29,2.66,-3.34,5.39
29.2209370136261,0.99,4.38,-1.03,4.6
29.222400903701782,-2.05,4.65,1.79,5.38
29.225105047225952,-4.18,3.98,4.08,7.06
29.316500902175903,-4.49,3.36,5.45,7.81
29.31845498085022,-3.51,3.15,6.62,8.12
29.319936990737915,-2.55,3.16,7.33,8.37
29.321498155593872,-2.22,2.88,6.96,7.85
29.32424807548523,-2.35,2.23,6.76,7.49
29.326760053634644,-2.38,1.56,7.19,7.73
29.32926106452942,-1.86,1.09,7.55,7.85
29.33193802833557,-1.37,1.07,7.4,7.6
29.334408044815063,-1.13,1.42,7.1,7.32
29.336961030960083,-0.79,1.98,6.74,7.06
29.33845806121826,-0.24,2.62,6.33,6.85
29.430927991867065,0.29,3.14,5.89,6.68
29.432832956314087,1.12,3.33,5.61,6.61
29.4343101978302,2.16,3.19,5.19,6.46
29.437153100967407,3.1,2.69,4.44,6.04
29.43861699104309,4.1,1.91,4.18,6.15
29.442196130752563,5.3,0.98,3.77,6.57
29.444714069366455,6.18,0.13,2.98,6.86
29.447211980819702,6.12,-0.35,2.38,6.57
29.449727058410645,5.5,-0.8,2.26,5.99
29.45221209526062,4.72,-0.98,1.98,5.21
29.544770002365112,3.83,-0.72,2.0,4.38
29.546683073043823,2.94,-0.2,2.03,3.57
29.548157930374146,1.96,0.15,2.29,3.01
29.55100107192993,1.31,0.25,2.08,2.47
29.553550958633423,1.63,0.12,1.37,2.13
29.554972887039185,2.95,-0.41,0.92,3.11
29.557374000549316,4.55,-1.37,0.19,4.75
29.559849977493286,5.75,-2.43,-0.73,6.28
29.562363862991333,6.6,-3.38,-2.03,7.68
29.56484603881836,6.96,-3.64,-2.55,8.25
29.65721297264099,6.78,-3.29,-2.34,7.89
29.659159898757935,5.99,-2.84,-2.14,6.96
29.660637140274048,5.06,-2.36,-2.33,6.04
29.663321018218994,4.61,-1.49,-2.74,5.56
29.665783166885376,4.95,-0.76,-3.05,5.86
29.66831612586975,5.19,-0.35,-2.89,5.95
29.670717000961304,4.68,0.06,-2.93,5.52
29.672165155410767,3.96,0.33,-2.96,4.95
29.675501108169556,3.42,0.27,-2.86,4.46
29.678040027618408,3.19,0.06,-2.25,3.9
29.77054715156555,3.01,-0.05,-1.77,3.49
29.772412061691284,2.94,-0.08,-1.45,3.27
29.774664163589478,3.31,0.04,-1.01,3.46
29.777107000350952,3.76,0.3,-0.62,3.82
29.779478073120117,3.24,0.49,-1.77,3.72
29.781758069992065,-2.08,0.18,-0.6,2.17
29.784024000167847,-8.74,-0.01,2.15,9.0
29.786327123641968,-11.16,-0.78,2.46,11.45
29.788996934890747,-7.25,-2.41,1.14,7.72
29.79137396812439,-0.24,-4.3,1.62,4.6
29.898109197616577,-0.67,-5.86,-0.95,5.97
29.89999008178711,-3.45,-7.82,0.33,8.55
29.901568174362183,-1.13,-10.68,6.65,12.63
29.904115915298462,2.93,-10.54,3.69,11.54
29.905769109725952,3.38,-5.75,-1.55,6.84
29.909376859664917,3.74,-1.07,-2.54,4.64
29.911702871322632,4.6,3.18,-3.51,6.6
29.914041996002197,5.3,7.11,-4.72,10.04
29.916497945785522,5.59,8.63,-5.14,11.49
29.918812036514282,5.49,6.48,-4.16,9.45
30.012660026550293,5.2,2.65,-2.4,6.31
30.01456308364868,4.15,-0.4,-1.05,4.29
30.01607918739319,1.96,-2.31,0.38,3.05
30.018537044525146,-0.48,-3.54,1.59,3.91
30.02092719078064,-1.71,-4.15,1.61,4.76
30.022459030151367,-1.44,-3.65,0.97,4.04
30.02640199661255,-1.01,-1.74,0.14,2.01
30.028825044631958,-0.67,0.39,-0.69,1.03
30.03130006790161,-0.09,1.66,-1.23,2.06
30.03487992286682,0.78,1.95,-1.53,2.59
30.129957914352417,1.35,1.54,-1.43,2.49
30.131942987442017,1.83,0.7,-1.07,2.23
30.133421182632446,2.17,-0.28,-0.6,2.26
30.136438131332397,1.92,-0.95,-0.31,2.16
30.139386892318726,1.3,-1.08,-0.42,1.74
30.14102816581726,0.59,-0.82,-0.83,1.3
30.15865397453308,-0.13,-0.42,-0.79,0.9
30.160279989242554,-0.62,-0.04,-0.68,0.92
30.162765979766846,-1.04,0.33,-0.66,1.27
30.165459871292114,-1.33,0.55,-0.61,1.56
30.258347034454346,-1.39,0.47,-0.27,1.49
30.260419130325317,-1.32,0.22,0.01,1.33
30.261895895004272,-1.16,0.02,0.02,1.16
30.265058994293213,-0.97,-0.14,0.23,1.0
30.26773500442505,-1.14,-0.15,0.57,1.28
30.270335912704468,-1.48,-0.16,0.55,1.58
30.2729070186615,-1.88,-0.26,0.52,1.96
30.274534940719604,-1.64,-0.23,0.47,1.72
30.29165005683899,-0.75,0.14,0.29,0.81
30.2933189868927,-0.57,0.21,0.24,0.65
30.29646897315979,-1.1,-0.03,0.62,1.26
30.388738870620728,-1.69,-0.21,0.62,1.81
30.390624046325684,-1.93,-0.15,0.4,1.97
30.39240002632141,-1.84,-0.17,0.5,1.91
30.39506506919861,-1.68,-0.12,0.57,1.77
30.397670030593872,-1.43,0.0,0.33,1.46
30.40031099319458,-0.91,0.12,0.33,0.97
30.40268588066101,-0.27,0.14,0.63,0.69
30.405839204788208,-0.07,0.1,0.68,0.69
30.407278060913086,-0.21,0.05,0.65,0.68
30.42449402809143,-0.38,0.16,0.5,0.64
30.514719009399414,-0.44,0.23,0.2,0.53
30.51671004295349,-0.36,0.21,-0.01,0.41
30.51819109916687,-0.13,0.07,0.07,0.16
30.52106785774231,0.04,-0.17,-0.08,0.19
30.52254891395569,0.06,-0.37,-0.32,0.49
30.52573299407959,-0.14,-0.58,-0.5,0.77
30.528292894363403,-0.34,-0.76,-0.63,1.04
30.530938863754272,0.06,-0.98,-0.08,0.98
30.53362488746643,0.77,-1.25,0.62,1.59
30.53631615638733,1.16,-1.43,0.89,2.04
30.628382921218872,1.03,-1.74,0.91,2.21
30.63033103942871,0.74,-1.97,0.53,2.17
30.63190007209778,0.42,-2.06,0.04,2.1
30.634423971176147,-0.06,-2.06,-0.58,2.14
30.636698007583618,-0.18,-2.05,-1.0,2.28
30.639729022979736,0.09,-2.04,-0.8,2.19
30.641650915145874,0.21,-1.94,-0.59,2.03
30.660948038101196,0.12,-1.8,-0.26,1.82
30.662721872329712,-0.21,-1.82,-0.13,1.83
30.66559100151062,-0.56,-2.41,0.31,2.49
30.76816201210022,-0.73,-3.56,1.02,3.77
30.77015519142151,-1.03,-4.51,1.01,4.73
30.771748065948486,-0.86,-5.0,1.43,5.27
30.77336597442627,-0.61,-4.99,2.01,5.41
30.793412923812866,-0.89,-4.28,2.03,4.81
30.795209169387817,-1.41,-3.35,2.56,4.44
30.797885179519653,-2.04,-2.72,2.67,4.32
30.80054497718811,-2.64,-2.46,3.06,4.73
30.80311417579651,-3.12,-2.32,2.96,4.88
30.806173086166382,-3.88,-2.28,2.13,4.97
30.897245168685913,-4.96,-2.58,1.67,5.83
30.899201154708862,-6.13,-3.08,1.34,6.98
30.900691032409668,-7.41,-3.43,0.9,8.21
30.90341305732727,-8.64,-3.8,1.43,9.54
30.906369924545288,-9.04,-4.05,1.54,10.02
30.907994031906128,-8.01,-3.86,0.93,8.94
30.925234079360962,-5.87,-3.55,1.29,6.98
30.926887035369873,-3.36,-3.64,0.82,5.02
30.929856061935425,-0.08,-4.1,-2.52,4.81
30.93234896659851,4.05,-4.81,-5.81,8.56
31.026456117630005,6.86,-5.94,-5.43,10.57
31.0283420085907,5.88,-6.8,-2.92,9.45
31.02986788749695,2.76,-6.58,-1.22,7.23
31.032624006271362,0.39,-5.72,-1.6,5.95
31.035144090652466,-0.24,-4.97,-1.23,5.12
31.037721872329712,0.17,-4.85,0.29,4.86
31.03919506072998,-0.36,-5.09,0.37,5.11
31.041786909103394,-1.43,-5.2,-0.63,5.42
31.044312000274658,-2.04,-4.62,-0.38,5.06
31.046836137771606,-2.15,-3.23,0.67,3.93
31.1390700340271,-1.79,-1.73,1.16,2.74
31.14123797416687,-1.34,-0.36,0.72,1.56
31.14287495613098,-0.66,0.61,0.39,0.97
31.14568591117859,0.31,1.33,0.27,1.39
31.1483051776886,1.02,1.86,0.36,2.15
31.15090298652649,1.46,2.06,0.38,2.55
31.15350317955017,1.57,2.13,0.31,2.66
31.1561439037323,1.47,2.08,0.55,2.6
31.15783715248108,1.04,2.46,0.82,2.79
31.176254987716675,0.58,2.91,0.97,3.12
31.267257928848267,0.32,3.06,1.25,3.32
31.269243955612183,0.0,3.37,1.59,3.72
31.270722150802612,-0.47,3.72,1.59,4.07
31.273295164108276,-1.07,4.07,1.79,4.57
31.27563786506653,-1.46,4.27,2.17,5.0
31.292865991592407,-1.69,4.46,2.39,5.33
31.29450011253357,-2.0,4.75,2.53,5.74
31.29721713066101,-1.98,5.07,2.86,6.14
31.299779176712036,-1.79,5.27,2.81,6.23
31.302321195602417,-1.66,5.69,2.76,6.53
31.30479907989502,-1.44,6.15,2.72,6.87
31.394224882125854,-1.06,6.42,2.73,7.05
31.396167039871216,-0.83,6.61,2.56,7.13
31.39767098426819,-0.57,6.64,2.42,7.09
31.400488138198853,-0.2,6.47,2.19,6.83
31.40304708480835,0.14,6.22,2.14,6.57
31.406256914138794,0.53,6.0,2.09,6.37
31.407912969589233,1.01,5.87,1.66,6.18
31.426923036575317,1.58,5.77,1.0,6.06
31.428630113601685,2.28,5.57,0.38,6.03
31.431187868118286,2.85,5.22,0.1,5.94
31.520807027816772,3.18,4.66,-0.06,5.64
31.522780179977417,3.41,3.96,-0.69,5.27
31.524301052093506,3.65,3.31,-1.36,5.11
31.527000188827515,3.75,2.7,-1.87,4.98
31.529622077941895,3.81,2.05,-2.07,4.79
31.53217601776123,4.18,1.55,-2.02,4.89
31.53472590446472,4.44,1.54,-2.06,5.13
31.537214994430542,4.39,1.81,-2.24,5.25
31.53978419303894,4.42,2.06,-2.12,5.31
31.54161810874939,4.73,2.37,-1.85,5.6
31.65207600593567,4.93,2.82,-1.65,5.91
31.653867959976196,4.62,3.32,-1.25,5.82
31.655472993850708,4.12,3.79,-0.69,5.64
31.657953023910522,3.7,4.28,-0.41,5.67
31.676594972610474,3.43,4.77,-1.48,6.05
31.678206205368042,2.27,5.0,-6.66,8.63
31.68123698234558,-0.58,2.47,-12.13,12.39
31.683794021606445,-2.58,-5.5,-8.47,10.42
31.686352014541626,2.52,-19.16,7.7,20.8
31.68894600868225,7.26,-26.22,7.15,28.13
31.76678204536438,3.67,-17.06,-0.7,17.46
31.76868987083435,0.87,-0.57,-3.03,3.2
31.770251035690308,0.54,8.54,-3.72,9.33
31.773136854171753,0.96,14.63,-0.85,14.68
31.77547287940979,0.39,14.02,-3.12,14.36
31.793412923812866,0.73,7.18,-5.77,9.24
31.79504418373108,2.84,2.12,1.43,3.82
31.797919988632202,4.04,-0.88,2.79,4.98
31.800312042236328,2.78,-2.27,-2.81,4.55
31.80282497406006,1.27,-3.91,-2.38,4.75
31.891112089157104,0.58,-6.3,-0.41,6.33
31.892988920211792,1.01,-6.85,-0.99,6.99
31.89525604248047,1.98,-3.56,-0.92,4.17
31.897998094558716,2.71,-0.04,-0.55,2.76
31.900645971298218,2.96,1.59,-0.44,3.38
31.903321981430054,2.75,1.8,-1.37,3.56
31.906462907791138,2.72,1.57,-1.49,3.47
31.907992124557495,2.84,1.08,-0.91,3.17
31.924910068511963,2.65,0.18,-0.6,2.72
31.92654299736023,1.77,-0.51,-0.17,1.84
32.01008915901184,0.64,-0.85,0.37,1.12
32.012179136276245,-0.41,-0.78,0.52,1.02
32.01372694969177,-0.91,-0.35,0.15,0.98
32.01648807525635,-0.71,0.26,-0.29,0.8
32.019044160842896,0.06,0.7,-0.23,0.73
32.021666049957275,0.79,0.65,-0.1,1.02
32.02320218086243,0.95,0.38,-0.4,1.09
32.026458978652954,0.71,0.19,-0.68,1.0
32.02912497520447,0.54,0.11,-0.78,0.95
32.03177499771118,0.49,0.04,-0.8,0.93
32.11201000213623,0.38,-0.01,-0.64,0.74
32.11399602890015,-0.06,-0.06,-0.6,0.6
32.11546802520752,-0.72,-0.02,-0.61,0.94
32.118316888809204,-1.23,0.1,-0.57,1.35
32.120965003967285,-1.51,0.29,-0.5,1.61
32.123461961746216,-1.72,0.49,-0.17,1.79
32.1249680519104,-1.74,0.58,0.04,1.83
32.14230990409851,-1.72,0.57,0.08,1.81
32.1438992023468,-1.7,0.5,0.21,1.78
32.14660716056824,-1.55,0.34,0.21,1.6
32.22557187080383,-1.2,0.28,0.17,1.24
32.22754502296448,-0.87,0.27,0.11,0.91
32.22898602485657,-0.72,0.16,-0.02,0.73
32.23188900947571,-0.73,-0.02,-0.05,0.73
32.234230041503906,-0.79,-0.19,0.1,0.81
32.236916065216064,-0.57,-0.32,0.32,0.72
32.239980936050415,-0.23,-0.44,0.2,0.53
32.241453886032104,-0.23,-0.26,0.01,0.34
32.258915185928345,-0.36,-0.13,-0.05,0.38
32.260525941848755,-0.27,-0.06,-0.21,0.34
32.263153076171875,-0.35,0.19,0.12,0.41
32.342422008514404,-0.59,0.09,0.07,0.6
32.34441113471985,-0.77,-0.09,0.1,0.78
32.34588694572449,-0.73,-0.06,0.23,0.76
32.34875702857971,-0.92,0.03,0.25,0.95
32.351341009140015,-1.13,0.11,0.17,1.14
32.354034185409546,-1.29,0.03,0.29,1.32
32.35653519630432,-0.99,-0.04,0.51,1.11
32.35799598693848,-0.47,-0.22,0.88,1.02
32.375696897506714,-0.59,-0.38,0.96,1.18
32.377305030822754,-1.14,-0.41,0.93,1.52
32.45603799819946,-1.97,-0.57,0.77,2.19
32.45804190635681,-2.82,-0.92,0.61,3.02
32.459616899490356,-3.08,-1.31,0.07,3.34
32.46240997314453,-3.15,-1.59,-1.05,3.68
32.46503710746765,-2.75,-1.62,-1.84,3.68
32.46743202209473,-1.07,-1.54,-1.89,2.66
32.47008919715881,0.72,-2.09,0.17,2.21
32.473302125930786,1.48,-2.77,0.57,3.19
32.47483420372009,1.62,-3.08,-0.25,3.48
32.477627992630005,1.94,-3.84,1.17,4.45
32.55439901351929,1.56,-5.07,2.23,5.75
32.556459188461304,0.36,-5.4,0.99,5.5
32.557976961135864,-0.53,-4.99,1.42,5.21
32.560746908187866,-0.74,-4.99,2.54,5.64
32.56316113471985,-1.72,-5.09,3.18,6.24
32.56592798233032,-3.51,-4.89,3.46,6.94
32.568432092666626,-4.5,-4.74,3.75,7.53
32.57109189033508,-4.81,-4.91,4.65,8.29
32.57386612892151,-5.81,-5.06,3.51,8.46
32.57574200630188,-7.93,-4.72,2.51,9.56
32.66612696647644,-10.1,-4.13,2.44,11.18
32.66790795326233,-10.41,-3.66,0.44,11.04
32.66951608657837,-8.89,-3.55,-0.37,9.57
32.67240118980408,-6.02,-4.13,0.37,7.3
32.673864126205444,-3.05,-5.1,-2.74,6.54
32.67679810523987,-0.38,-6.08,-7.72,9.83
32.67944598197937,2.85,-6.87,-9.28,11.89
32.68202614784241,5.55,-7.63,-8.42,12.64
32.68470001220703,7.43,-8.51,-5.87,12.73
32.68739104270935,7.48,-8.29,-4.38,11.99
32.765702962875366,5.52,-5.83,-5.29,9.61
32.767983198165894,3.1,-3.27,-5.26,6.92
32.7694571018219,1.46,-2.46,-3.51,4.52
32.77225089073181,0.4,-2.67,-2.04,3.38
32.773715019226074,-0.9,-2.6,-1.27,3.03
32.776777029037476,-2.51,-2.06,-0.65,3.31
32.77944898605347,-3.85,-1.43,0.39,4.12
32.78209710121155,-4.53,-0.65,1.56,4.83
32.78478217124939,-5.24,0.52,2.27,5.73
32.78747200965881,-6.03,1.59,2.4,6.68
32.865336179733276,-6.32,2.3,2.62,7.21
32.86712193489075,-6.01,2.78,3.04,7.28
32.86934494972229,-5.54,3.19,3.61,7.34
32.87201189994812,-5.23,3.59,3.98,7.48
32.873475074768066,-5.22,3.99,4.02,7.7
32.875932931900024,-5.38,4.24,4.01,7.93
32.8783540725708,-5.41,4.37,4.19,8.11
32.88099694252014,-4.84,4.3,4.22,7.72
32.88372802734375,-4.51,4.25,3.89,7.31
32.88637900352478,-4.79,4.08,3.9,7.4
32.96359705924988,-5.03,3.73,4.18,7.52
32.96533203125,-5.05,3.35,4.18,7.36
32.96745204925537,-4.81,3.3,4.27,7.22
32.97000002861023,-4.35,3.75,4.33,7.19
32.97271108627319,-3.93,4.6,4.11,7.31
32.97418808937073,-3.58,5.5,3.89,7.62
