time,ax,ay,az,atotal
0.0031952857971191406,0.39,0.0,0.88,0.96
0.005109310150146484,0.16,-0.19,0.78,0.81
0.007025241851806641,0.09,-0.31,0.32,0.45
0.009775161743164062,0.21,-0.31,0.05,0.37
0.013038158416748047,0.35,0.02,-0.28,0.44
0.02104926109313965,0.5,0.37,-0.57,0.84
0.03163719177246094,0.64,0.38,-0.66,0.99
0.04101228713989258,0.54,0.23,-0.46,0.74
0.05144929885864258,0.16,0.11,-0.24,0.3
0.061193227767944336,-0.2,0.08,-0.06,0.22
0.10023832321166992,-0.25,0.05,-0.14,0.29
0.10244035720825195,-0.04,-0.01,0.01,0.04
0.10416126251220703,0.25,-0.01,0.29,0.38
0.10664129257202148,0.27,0.08,0.27,0.39
0.11083412170410156,0.03,0.17,0.35,0.39
0.12075138092041016,-0.27,0.07,0.43,0.51
0.13040733337402344,-0.39,-0.14,0.37,0.55
0.14085125923156738,-0.4,-0.23,0.29,0.54
0.15065717697143555,-0.5,-0.15,0.09,0.52
0.16048717498779297,-0.53,0.0,0.04,0.53
0.17047524452209473,-0.53,0.04,0.0,0.53
0.20488309860229492,-0.64,-0.03,-0.14,0.65
0.20735740661621094,-0.68,-0.05,-0.29,0.74
0.20917725563049316,-0.69,-0.01,-0.28,0.74
0.21095514297485352,-0.61,0.02,-0.21,0.64
0.22861814498901367,-0.3,-0.02,-0.16,0.34
0.23055410385131836,0.04,-0.06,-0.32,0.32
0.23961210250854492,0.09,-0.1,-0.13,0.18
0.249603271484375,0.08,-0.09,0.13,0.17
0.25992441177368164,0.14,-0.06,-0.07,0.16
0.2698702812194824,0.13,-0.03,-0.12,0.17
0.3022804260253906,0.04,-0.03,-0.05,0.07
0.3048732280731201,-0.08,-0.08,-0.17,0.2
0.3068103790283203,-0.18,-0.15,-0.1,0.25
0.3098282814025879,-0.19,-0.14,0.0,0.23
0.3196144104003906,-0.17,-0.05,-0.01,0.17
0.3290081024169922,-0.22,-0.01,0.08,0.23
0.3390064239501953,-0.32,-0.07,0.29,0.43
0.34935712814331055,-0.59,-0.18,0.57,0.83
0.35887622833251953,-0.86,-0.27,0.69,1.13
0.3695840835571289,-0.98,-0.32,0.58,1.18
0.4040372371673584,-0.89,-0.32,0.7,1.17
0.40665721893310547,-0.66,-0.27,0.83,1.09
0.40862321853637695,-0.52,-0.28,0.64,0.87
0.41057729721069336,-0.47,-0.48,0.49,0.83
0.42929720878601074,-0.56,-0.81,0.62,1.16
0.4312901496887207,-0.89,-1.2,0.54,1.58
0.43812131881713867,-1.36,-1.51,0.25,2.04
0.4481542110443115,-2.12,-1.75,0.33,2.76
0.45821142196655273,-3.12,-2.04,0.7,3.79
0.46842432022094727,-4.2,-2.58,1.15,5.06
0.5014753341674805,-5.3,-3.46,1.33,6.46
0.5040483474731445,-6.08,-4.62,1.51,7.78
0.5059852600097656,-5.86,-5.81,1.86,8.45
0.5086662769317627,-4.65,-6.6,1.94,8.3
0.5179872512817383,-2.19,-6.76,1.74,7.31
0.5281691551208496,0.4,-6.45,0.52,6.48
0.5379602909088135,0.28,-6.25,-0.48,6.27
0.5478701591491699,-2.23,-6.3,0.07,6.68
0.5575370788574219,-3.66,-6.1,1.14,7.2
0.5680093765258789,-2.81,-5.35,1.22,6.16
0.6081171035766602,-2.06,-4.07,0.51,4.59
0.6107022762298584,-1.94,-2.81,0.02,3.41
0.6125540733337402,-1.91,-1.79,0.02,2.61
0.6161751747131348,-2.04,-0.97,0.01,2.25
0.619011402130127,-2.35,-0.37,0.02,2.37
0.627326250076294,-2.78,-0.03,0.1,2.78
0.6370983123779297,-3.18,0.11,0.57,3.23
0.6468791961669922,-3.41,0.23,0.93,3.54
0.6572051048278809,-3.85,0.39,0.76,3.94
0.6674492359161377,-4.31,0.48,0.9,4.42
0.7059342861175537,-4.4,0.45,1.33,4.61
0.7084472179412842,-4.1,0.56,1.52,4.4
0.710383415222168,-3.79,0.93,1.45,4.16
0.7136132717132568,-3.53,1.48,1.47,4.1
0.7164392471313477,-3.0,2.07,1.22,3.84
0.7265653610229492,-2.44,2.67,0.84,3.71
0.7361972332000732,-1.86,3.18,0.59,3.73
0.746253252029419,-1.31,3.59,0.45,3.84
0.7564163208007812,-0.77,3.86,0.34,3.95
0.7661752700805664,0.03,3.92,-0.17,3.92
0.8061552047729492,0.89,3.88,-0.82,4.06
0.8086581230163574,1.65,3.86,-0.85,4.28
0.8105442523956299,2.27,4.05,-0.82,4.71
0.8132622241973877,2.58,4.36,-0.96,5.15
0.8159592151641846,2.65,4.57,-1.09,5.39
0.8255512714385986,2.59,4.52,-1.09,5.32
0.8359012603759766,2.31,4.15,-0.82,4.81
0.8455643653869629,1.91,3.57,-0.25,4.05
0.8555111885070801,1.88,3.04,0.35,3.59
0.8657922744750977,2.11,2.68,0.77,3.49
0.9054703712463379,2.15,2.52,1.22,3.53
0.9076833724975586,2.21,2.73,1.66,3.88
0.9100151062011719,2.19,3.16,1.6,4.16
0.9120562076568604,2.15,3.33,1.11,4.11
0.9281153678894043,2.37,3.06,0.47,3.89
0.9300804138183594,2.83,2.71,0.06,3.91
0.9348492622375488,3.32,2.7,-0.07,4.27
0.9448802471160889,3.67,3.05,-0.04,4.77
0.9554252624511719,3.75,3.44,-0.64,5.12
0.9650452136993408,3.05,3.29,-2.9,5.34
0.9750242233276367,0.67,0.94,-5.52,5.63
1.0090372562408447,-0.96,-6.92,-4.81,8.48
1.011214256286621,0.93,-19.75,-0.29,19.77
1.0136103630065918,5.65,-20.33,5.35,21.76
1.0163850784301758,7.94,-7.75,6.65,12.93
1.0242242813110352,5.16,0.61,3.04,6.01
1.034325122833252,0.89,5.24,1.16,5.44
1.04429030418396,-1.47,8.67,0.04,8.79
1.0544471740722656,-2.25,10.63,-3.07,11.29
1.0644230842590332,-1.82,10.17,-3.94,11.05
1.0745081901550293,0.69,7.51,-0.91,7.59
1.1092143058776855,3.31,4.85,0.14,5.87
1.1114091873168945,4.69,1.34,-2.08,5.3
1.1137771606445312,5.47,-3.88,-0.93,6.77
1.1162433624267578,6.03,-7.58,0.6,9.7
1.1237893104553223,5.68,-6.7,-1.31,8.88
1.1338133811950684,4.12,-2.9,-2.28,5.53
1.143545150756836,2.4,-0.14,-2.33,3.34
1.1538782119750977,0.56,1.55,-1.86,2.48
1.1634793281555176,0.41,2.45,-1.67,2.99
1.173485279083252,2.02,2.07,-1.21,3.13
1.2078351974487305,3.54,0.81,-1.17,3.81
1.2100610733032227,3.88,-0.19,-1.8,4.28
1.2120780944824219,3.17,-0.44,-1.71,3.62
1.2157793045043945,2.35,-0.37,-0.6,2.45
1.2227520942687988,1.91,-0.33,-0.12,1.94
1.2328402996063232,1.84,-0.51,0.23,1.92
1.2428882122039795,1.91,-0.86,0.55,2.16
1.2528622150421143,1.91,-0.92,0.33,2.14
1.2629482746124268,2.13,-0.6,0.06,2.21
1.2729952335357666,2.52,0.15,0.15,2.52
1.307603359222412,2.37,0.78,0.17,2.5
1.3104362487792969,1.56,1.02,-0.32,1.89
1.3129353523254395,0.79,1.01,-0.54,1.39
1.3156890869140625,0.36,0.72,0.03,0.8
1.3221983909606934,0.37,0.14,0.48,0.62
1.3324782848358154,0.19,-0.3,0.39,0.52
1.3420281410217285,-0.43,-0.45,0.6,0.86
1.352365255355835,-1.08,-0.38,0.96,1.49
1.3621153831481934,-1.5,-0.16,0.57,1.61
1.371927261352539,-1.5,0.08,0.59,1.61
1.4127941131591797,-1.4,0.14,0.85,1.64
1.4152872562408447,-1.68,0.22,0.48,1.76
1.4172112941741943,-1.96,0.44,0.02,2.0
1.4317402839660645,-2.03,0.57,-0.34,2.13
1.4337692260742188,-2.0,0.52,-0.26,2.08
1.4363272190093994,-1.83,0.39,-0.31,1.89
1.4412751197814941,-1.61,0.43,-0.56,1.75
1.4512991905212402,-1.78,0.48,-0.25,1.86
1.4613771438598633,-2.23,0.23,0.28,2.25
1.4714782238006592,-2.67,-0.14,0.42,2.7
1.5101232528686523,-3.34,-0.41,0.63,3.42
1.512871265411377,-4.03,-0.7,0.78,4.16
1.5147771835327148,-4.13,-0.79,0.49,4.23
1.5174663066864014,-3.6,-0.39,0.8,3.7
1.5206804275512695,-2.42,0.13,0.9,2.58
1.5308942794799805,-1.77,0.46,0.41,1.87
1.540903091430664,-1.99,0.61,0.16,2.08
1.5510683059692383,-1.5,0.51,0.34,1.62
1.5607633590698242,0.04,0.35,0.7,0.78
1.5709490776062012,1.08,0.19,1.08,1.53
1.6111021041870117,0.89,-0.1,1.07,1.39
1.6136972904205322,0.17,-0.53,0.7,0.89
1.6155991554260254,-0.77,-1.14,-0.16,1.38
1.618279218673706,-1.64,-1.8,-0.07,2.43
1.6210641860961914,-1.94,-2.21,0.06,2.94
1.6305122375488281,-2.11,-2.71,-0.33,3.45
1.6402592658996582,-2.22,-3.83,-0.36,4.44
1.6504011154174805,-2.13,-4.93,0.03,5.37
1.6601362228393555,-0.15,-5.28,0.2,5.28
1.6702022552490234,2.1,-4.8,1.22,5.37
1.709928274154663,2.09,-4.39,1.33,5.04
1.7124922275543213,0.28,-5.31,0.96,5.4
1.7144272327423096,-2.04,-7.43,1.66,7.88
1.717055320739746,-4.45,-9.53,1.52,10.62
1.7197661399841309,-6.96,-10.99,1.2,13.06
1.7298483848571777,-9.62,-11.88,2.05,15.42
1.740431308746338,-12.29,-11.52,2.57,17.03
1.7494451999664307,-12.76,-9.9,2.25,16.3
1.7593750953674316,-11.86,-7.65,4.03,14.67
1.769639253616333,-11.02,-5.6,5.39,13.48
1.7792363166809082,-9.58,-5.82,2.89,11.57
1.814542293548584,-6.6,-9.04,-2.23,11.41
1.8167603015899658,-1.23,-13.21,-6.54,14.79
1.8187003135681152,5.58,-15.31,-5.46,17.18
1.8214263916015625,10.68,-12.93,-5.32,17.59
1.82930326461792,9.63,-7.87,-8.53,15.08
1.8388392925262451,6.92,-4.07,-9.4,12.36
1.8489460945129395,5.98,-2.07,-7.46,9.78
1.858870267868042,5.02,-1.91,-4.17,6.79
1.8688182830810547,2.57,-2.92,-1.41,4.13
1.8787102699279785,-0.51,-3.16,0.55,3.24
1.9139072895050049,-2.47,-3.16,1.85,4.41
1.9160122871398926,-4.24,-2.79,2.87,5.83
1.9179213047027588,-6.8,-1.7,4.26,8.2
1.9204182624816895,-9.3,0.08,6.3,11.23
1.928185224533081,-10.46,2.73,7.73,13.28
1.9379901885986328,-10.89,5.61,7.44,14.33
1.9483723640441895,-11.25,7.84,6.13,15.02
1.958097219467163,-11.59,9.13,4.72,15.49
1.9681391716003418,-11.53,9.77,4.29,15.7
1.9781413078308105,-10.43,9.62,4.59,14.91
2.013855218887329,-8.89,9.13,4.26,13.43
2.0160813331604004,-7.69,8.65,3.82,12.18
2.017993211746216,-6.51,8.35,3.1,11.03
2.0207033157348633,-5.36,8.38,2.12,10.17
2.027609348297119,-4.33,8.77,2.05,9.99
2.0377731323242188,-2.89,9.14,2.25,9.84
2.047422409057617,-1.65,9.52,1.66,9.8
2.057643413543701,-0.72,10.14,0.44,10.17
2.0677292346954346,0.21,10.63,-0.89,10.66
2.078378200531006,1.04,10.55,-1.33,10.68
2.113863229751587,1.85,10.05,-1.48,10.32
2.116105079650879,2.48,9.49,-1.89,9.98
2.1180171966552734,2.83,9.04,-2.21,9.72
2.1206302642822266,3.35,8.6,-2.29,9.5
2.126591205596924,4.1,8.64,-3.44,10.16
2.1369833946228027,5.02,8.92,-5.48,11.61
2.1469273567199707,6.06,8.43,-5.91,11.94
2.156623363494873,6.89,7.59,-4.06,11.02
2.1667442321777344,7.35,6.86,-5.51,11.46
2.1765172481536865,7.9,6.61,-24.93,26.97
2.2164342403411865,13.45,1.49,-26.71,29.94
2.2186872959136963,18.98,-20.61,26.17,38.33
2.2206010818481445,0.57,-35.28,20.25,40.68
2.223355293273926,-4.69,-21.25,-13.89,25.81
2.2259063720703125,5.72,-6.55,-5.71,10.4
2.236269235610962,5.97,0.62,5.89,8.4
2.245908260345459,-3.01,4.28,-3.07,6.06
2.256239414215088,-5.66,7.12,-4.63,10.2
2.2661471366882324,-4.03,11.77,-1.66,12.55
2.2757983207702637,1.87,12.49,-0.97,12.66
2.3162503242492676,8.46,7.83,1.11,11.58
2.3184022903442383,11.1,1.53,0.74,11.22
2.3207921981811523,9.86,-3.49,-2.52,10.75
2.3236141204833984,7.94,-7.28,-1.05,10.82
2.3262534141540527,4.28,-7.5,1.65,8.79
2.335667133331299,0.54,-4.96,2.65,5.64
2.3457303047180176,-0.98,-1.85,3.12,3.75
2.3564743995666504,-0.39,0.47,2.03,2.11
2.3653931617736816,0.97,1.42,2.15,2.75
2.3753433227539062,1.9,2.26,1.9,3.51
2.4150524139404297,1.83,2.1,0.79,2.89
2.4172310829162598,2.45,1.21,0.29,2.74
2.419584274291992,3.09,-0.14,0.02,3.09
2.422429084777832,3.06,-1.04,-0.72,3.31
2.4250431060791016,1.22,-1.1,-0.66,1.77
2.4348464012145996,-0.8,-0.57,-0.36,1.04
2.4448742866516113,-2.23,0.05,0.13,2.23
2.455118179321289,-3.07,0.77,0.5,3.2
2.46449613571167,-2.76,0.86,0.64,2.96
2.474489212036133,-2.63,1.08,0.89,2.97
2.5154471397399902,-2.28,0.69,0.74,2.49
2.517625331878662,-1.76,0.08,0.18,1.77
2.5199432373046875,-1.31,0.1,0.3,1.34
2.5226662158966064,-0.75,0.06,0.29,0.8
2.5253853797912598,-0.94,0.08,-0.05,0.94
2.5337772369384766,-2.21,0.57,-0.05,2.28
2.5438780784606934,-3.36,0.94,0.33,3.5
2.554136276245117,-3.63,0.9,0.99,3.86
2.563793182373047,-3.1,0.47,0.75,3.22
2.574089288711548,-2.92,0.48,1.3,3.23
2.584041118621826,-2.26,0.39,1.96,3.01
2.6183342933654785,-1.02,0.21,0.92,1.38
2.621046304702759,-0.25,0.17,0.67,0.73
2.6229922771453857,-0.42,0.06,0.66,0.78
2.6257553100585938,-1.24,-0.39,-0.08,1.3
2.6332411766052246,-1.53,-1.09,-0.05,1.87
2.642975330352783,-1.53,-1.85,0.08,2.4
2.6535091400146484,-1.26,-2.57,-0.33,2.88
2.663135290145874,-1.66,-2.85,-0.36,3.31
2.673081398010254,-2.34,-3.08,-0.78,3.94
2.6835451126098633,-1.58,-3.88,-0.75,4.25
2.71818208694458,0.3,-4.71,0.1,4.72
2.720355272293091,0.85,-5.04,0.54,5.13
2.7222743034362793,0.59,-5.22,0.53,5.27
2.7250401973724365,1.15,-5.41,1.23,5.66
2.732783317565918,1.45,-5.79,1.68,6.2
2.7425572872161865,-0.7,-7.32,2.11,7.65
2.752650260925293,-3.88,-9.74,2.74,10.83
2.762916088104248,-7.07,-11.22,2.71,13.53
2.773435115814209,-9.85,-11.12,2.47,15.05
2.7829031944274902,-12.11,-10.28,2.52,16.08
2.816714286804199,-12.59,-9.31,2.73,15.89
2.8188862800598145,-11.31,-7.94,3.55,14.26
2.821261405944824,-9.76,-6.26,3.65,12.15
2.8240814208984375,-9.31,-5.85,3.11,11.42
2.8319830894470215,-8.82,-7.89,0.18,11.83
2.842013359069824,-6.65,-10.77,-3.08,13.02
2.8526182174682617,-2.88,-12.84,-3.85,13.71
2.862539291381836,3.67,-13.66,-2.66,14.39
2.8718771934509277,9.1,-11.11,-3.77,14.84
2.881880283355713,8.23,-5.76,-5.99,11.69
2.91719913482666,5.95,-2.07,-5.92,8.64
2.9192423820495605,5.14,0.46,-4.82,7.06
2.9211673736572266,4.69,0.91,-3.0,5.64
2.9249331951141357,3.43,-0.31,-1.4,3.71
2.9311623573303223,1.03,-1.38,-0.57,1.81
2.9414544105529785,-1.84,-1.29,-0.27,2.26
2.9511303901672363,-4.34,-1.0,0.61,4.49
2.9612603187561035,-6.19,-0.6,1.81,6.47
2.971264362335205,-7.28,-0.16,3.61,8.12
2.9814963340759277,-7.5,1.19,4.74,8.95
3.0224270820617676,-7.32,3.35,4.77,9.35
3.024583339691162,-7.54,5.65,3.95,10.21
3.0265512466430664,-8.01,7.57,4.35,11.84
3.0296101570129395,-8.13,8.55,4.57,12.65
3.046983242034912,-7.36,8.45,3.94,11.87
3.0490450859069824,-6.73,8.68,3.35,11.48
3.0518174171447754,-6.51,8.72,3.38,11.39
3.0609512329101562,-6.41,8.34,3.46,11.07
3.070341110229492,-6.23,8.01,3.48,10.72
3.0803792476654053,-5.7,7.85,3.95,10.47
3.11973237991333,-4.95,8.13,4.11,10.36
3.1219162940979004,-4.03,8.76,3.43,10.23
3.12385630607605,-3.23,9.41,2.59,10.28
3.126512289047241,-2.23,9.9,2.06,10.35
3.12992525100708,-1.12,10.4,1.07,10.51
3.1399312019348145,-0.07,10.93,-0.57,10.94
3.149785280227661,1.0,11.09,-2.05,11.32
3.1597251892089844,2.31,10.61,-2.72,11.19
3.1699771881103516,3.65,9.76,-2.65,10.75
3.179568290710449,4.69,8.79,-2.16,10.19
3.22162127494812,5.27,8.15,-2.46,10.01
3.2238662242889404,5.84,8.49,-2.81,10.68
3.2258353233337402,6.48,9.84,-2.0,11.95
3.229245185852051,7.19,11.25,-6.2,14.72
3.2319583892822266,10.12,12.24,-34.23,37.73
3.2392501831054688,19.75,6.56,-36.63,42.12
3.2499523162841797,26.77,-19.51,38.54,50.81
3.259512424468994,2.19,-39.88,27.26,48.35
3.269310235977173,-4.18,-25.38,-26.92,37.23
3.2793941497802734,6.71,-8.07,-3.64,11.1
3.320472240447998,10.9,-1.58,12.15,16.39
3.3226733207702637,-1.09,1.39,-7.36,7.56
3.324550151824951,-7.55,4.59,-5.59,10.45
3.3282172679901123,-8.93,9.24,-0.13,12.85
3.330721378326416,-3.29,11.58,-1.61,12.14
3.3467812538146973,5.21,8.3,3.6,10.44
3.3488502502441406,10.38,2.27,1.85,10.78
3.358218193054199,11.07,-2.65,-3.98,12.05
3.368629217147827,9.21,-5.52,-3.12,11.18
3.378422260284424,5.98,-6.04,-0.78,8.53
3.388150215148926,2.55,-5.14,1.41,5.9
3.4240152835845947,-0.5,-3.36,2.34,4.12
3.4263391494750977,-1.52,-1.57,2.1,3.03
3.428255081176758,-1.26,0.16,1.4,1.89
3.431546211242676,0.19,1.23,1.24,1.75
3.4376163482666016,1.57,1.77,1.23,2.66
3.4477272033691406,2.77,1.27,0.67,3.12
3.4578633308410645,3.31,0.4,0.12,3.33
3.4681200981140137,3.15,-0.58,-0.59,3.25
3.477588176727295,2.68,-1.4,-0.57,3.07
3.48771333694458,1.69,-1.6,-0.25,2.34
3.5245680809020996,0.11,-1.03,0.06,1.03
3.5277302265167236,-1.71,-0.15,0.23,1.73
3.5296502113342285,-2.65,0.77,-0.14,2.76
3.5334322452545166,-2.93,1.63,0.06,3.35
3.536931276321411,-2.71,1.86,0.26,3.29
3.5470292568206787,-1.82,1.62,0.13,2.44
3.5570731163024902,-1.02,1.18,-0.22,1.57
3.567183256149292,-1.05,0.9,-0.28,1.41
3.5768392086029053,-1.73,1.19,0.57,2.17
3.5870532989501953,-2.18,1.77,0.06,2.8
3.6232523918151855,-2.36,2.11,-0.26,3.17
3.6258673667907715,-2.21,2.32,0.31,3.21
3.6278233528137207,-1.48,2.5,0.76,3.0
3.6298394203186035,-1.3,2.77,1.21,3.29
3.647043228149414,-0.8,2.66,1.25,3.04
3.6489853858947754,-0.03,2.04,1.53,2.55
3.6562423706054688,-0.12,1.35,1.7,2.17
3.6665663719177246,-2.17,0.93,1.19,2.64
3.6762471199035645,-4.43,0.85,2.26,5.04
3.686537265777588,-5.99,0.75,2.57,6.56
3.723506212234497,-6.33,0.15,-0.72,6.37
3.7261972427368164,-5.07,-1.22,-1.99,5.58
3.728335380554199,-2.18,-2.91,-0.36,3.65
3.7305703163146973,0.99,-3.61,1.06,3.89
3.747314214706421,1.49,-2.44,0.83,2.97
3.7493672370910645,-0.56,-0.69,0.52,1.02
3.755681276321411,-2.84,-0.5,0.04,2.88
3.7657341957092285,-4.04,-1.85,-0.83,4.52
3.775829315185547,-4.35,-4.07,-1.71,6.19
3.7854104042053223,-4.4,-6.12,-1.35,7.65
3.8270931243896484,-3.7,-7.28,-1.83,8.36
3.829698085784912,-1.5,-7.21,-2.22,7.69
3.831630229949951,0.94,-6.66,-0.88,6.78
3.834310293197632,1.81,-6.84,0.23,7.07
3.8369362354278564,0.47,-7.53,1.97,7.79
3.8448402881622314,-3.54,-8.38,3.53,9.75
3.855128288269043,-7.9,-9.4,5.01,13.26
3.864912271499634,-10.72,-9.94,4.66,15.34
3.875523090362549,-12.28,-10.17,4.29,16.51
3.88545823097229,-12.24,-10.51,3.81,16.57
3.9267492294311523,-10.48,-9.55,4.73,14.94
3.929370403289795,-8.85,-7.32,5.95,12.93
3.9313082695007324,-8.24,-6.04,4.45,11.14
3.933974266052246,-7.93,-7.04,1.07,10.65
3.936735153198242,-5.74,-9.03,-2.91,11.08
3.944153308868408,-1.57,-10.4,-3.3,11.02
3.9541401863098145,4.47,-11.35,-2.1,12.37
3.964414119720459,8.29,-9.71,-3.83,13.32
3.974379301071167,7.36,-5.04,-7.59,11.71
3.9841291904449463,5.64,-1.36,-7.72,9.65
4.027860164642334,5.18,0.38,-5.09,7.27
4.030453205108643,4.7,0.96,-3.26,5.79
4.032364368438721,3.17,0.5,-2.65,4.16
4.035163402557373,1.09,-0.48,-2.12,2.43
4.037990093231201,-0.46,-1.38,-1.58,2.14
4.044157266616821,-1.73,-1.66,-0.87,2.55
4.053828239440918,-2.99,-1.09,0.49,3.21
4.064155101776123,-4.38,-0.14,1.94,4.79
4.073413372039795,-5.33,1.07,2.48,5.97
4.083856105804443,-5.95,2.88,2.86,7.2
4.126148223876953,-6.22,4.72,2.44,8.18
4.128450393676758,-6.09,6.14,2.18,8.91
4.130365371704102,-5.73,7.19,2.0,9.4
4.134134292602539,-5.5,7.96,1.21,9.75
4.136846303939819,-5.28,8.28,0.83,9.85
4.142836093902588,-4.88,8.27,0.54,9.61
4.153048276901245,-4.07,7.86,0.38,8.85
4.162874221801758,-3.38,7.69,0.61,8.42
4.1730122566223145,-3.09,7.63,1.13,8.3
4.182735204696655,-3.28,7.77,1.9,8.64
4.193058252334595,-3.27,8.21,1.91,9.04
4.231682300567627,-2.99,8.63,1.69,9.28
4.233895301818848,-2.92,9.09,1.79,9.71
4.236234188079834,-2.98,9.53,2.51,10.29
4.2389702796936035,-3.07,9.86,2.81,10.7
4.242027282714844,-2.87,9.96,1.86,10.53
4.252364158630371,-2.5,9.97,0.31,10.28
4.262153148651123,-1.63,9.66,-1.23,9.87
4.272085189819336,-0.14,9.02,-2.71,9.41
4.2822160720825195,1.56,8.11,-3.09,8.81
4.292238235473633,3.48,6.93,-2.48,8.14
4.330357074737549,5.67,5.93,-1.95,8.43
4.332556247711182,7.33,5.58,-2.27,9.48
4.334912300109863,7.88,5.82,-1.87,9.97
4.33772611618042,7.6,6.71,-1.0,10.18
4.341376304626465,6.75,8.52,-0.79,10.89
4.35157322883606,5.66,10.41,-0.81,11.87
4.361417293548584,3.89,11.07,-0.36,11.73
4.372103214263916,1.85,9.03,-13.64,16.46
4.381387233734131,4.64,-4.16,-31.12,31.73
4.392373085021973,20.0,-56.06,18.27,62.26
4.425395250320435,12.33,-54.94,47.3,73.53
4.427706241607666,-3.08,-18.58,-13.22,23.01
4.429627418518066,-5.49,1.22,-27.72,28.28
4.43245530128479,-8.08,13.41,-5.54,16.6
4.440675258636475,-6.86,19.9,6.16,21.93
4.450989246368408,-1.37,22.47,2.02,22.6
4.460695266723633,1.28,16.01,-1.43,16.12
4.470780372619629,2.63,6.1,-0.68,6.67
4.480684280395508,4.48,-1.42,-3.95,6.13
4.490898132324219,8.48,-8.5,-3.18,12.42
4.524261236190796,12.76,-13.8,1.9,18.89
4.527034282684326,10.73,-11.53,2.61,15.96
4.52894926071167,4.8,-4.39,0.93,6.57
4.531687259674072,1.01,0.99,2.14,2.56
4.539947271347046,-0.64,2.57,2.39,3.56
4.550113201141357,-1.99,3.34,1.73,4.25
4.56018328666687,-2.66,3.85,0.64,4.72
4.570474147796631,-1.33,3.11,0.48,3.41
4.579970359802246,1.24,1.06,0.1,1.63
4.590109348297119,2.89,-0.53,-0.05,2.93
4.630456209182739,3.43,-1.63,-0.38,3.81
4.633025169372559,3.22,-2.48,-0.68,4.12
4.634920120239258,2.54,-2.3,-0.24,3.43
4.649803161621094,1.25,-1.35,0.14,1.84
4.65180230140686,-0.14,-0.53,0.07,0.55
4.654633283615112,-0.97,0.01,0.44,1.06
4.659179210662842,-1.24,0.55,0.8,1.57
4.669501304626465,-0.89,1.02,0.86,1.6
4.6793341636657715,-0.34,1.23,0.52,1.37
4.6895341873168945,-0.04,0.87,0.01,0.87
4.727442264556885,-0.04,0.79,-0.45,0.91
4.730007171630859,0.06,0.9,-0.67,1.12
4.731919288635254,0.05,1.2,-0.98,1.55
4.734516143798828,-0.5,1.52,-0.59,1.7
4.738655090332031,-1.27,1.91,-0.08,2.29
4.748883247375488,-1.93,1.95,0.23,2.75
4.758683204650879,-2.71,1.55,0.65,3.18
4.769191265106201,-3.51,1.08,1.27,3.88
4.778727293014526,-3.7,0.68,1.58,4.08
4.788559198379517,-3.22,0.57,1.29,3.51
4.8291943073272705,-2.25,0.4,1.58,2.77
4.831756114959717,-1.69,0.21,2.18,2.76
4.833693265914917,-2.29,-0.19,2.49,3.38
4.83646821975708,-3.3,-1.05,2.11,4.05
4.839363098144531,-3.84,-1.77,1.21,4.39
4.848328113555908,-3.76,-2.22,1.29,4.55
4.8585522174835205,-3.5,-2.38,1.53,4.5
4.8681182861328125,-3.51,-2.51,-0.24,4.32
4.877931118011475,-2.61,-2.72,-1.91,4.22
4.888036251068115,-1.29,-2.58,-2.3,3.68
4.9274022579193115,-0.25,-2.46,-2.88,3.79
4.9300172328948975,1.14,-2.66,-2.11,3.58
4.931938171386719,2.12,-2.68,-1.76,3.84
4.9345903396606445,0.99,-2.59,-0.89,2.91
4.937402248382568,-1.0,-2.88,-0.99,3.2
4.9480202198028564,-2.77,-3.66,-0.57,4.62
4.957203388214111,-3.83,-5.01,1.58,6.5
4.96801233291626,-3.91,-6.53,1.6,7.77
4.9772772789001465,-2.52,-7.65,0.68,8.08
4.98750638961792,-1.44,-8.35,1.62,8.62
4.9973273277282715,-1.28,-8.87,3.24,9.52
5.032624244689941,-2.43,-8.86,3.94,9.99
5.034717082977295,-4.15,-8.31,4.69,10.4
5.036574363708496,-5.58,-7.35,5.13,10.55
5.040342330932617,-7.31,-5.67,5.07,10.54
5.046678304672241,-9.43,-3.59,3.99,10.85
5.056791305541992,-10.78,-2.2,2.92,11.38
5.066781282424927,-9.32,-2.74,1.6,9.84
5.076873302459717,-4.94,-5.35,-1.52,7.43
5.087054252624512,-0.64,-8.33,-5.02,9.74
5.096678256988525,4.03,-10.75,-6.38,13.13
5.132556200027466,8.45,-11.28,-4.4,14.76
5.134657382965088,11.15,-8.61,-0.84,14.11
5.136544227600098,10.65,-3.94,-1.97,11.52
5.139193296432495,7.25,-0.6,-3.99,8.29
5.146005153656006,4.7,0.2,-2.43,5.29
5.156207084655762,2.62,0.34,0.11,2.64
5.166263103485107,0.12,0.39,1.3,1.36
5.175945281982422,-2.49,0.06,2.54,3.55
5.186156272888184,-4.85,-0.21,3.95,6.25
5.195820331573486,-6.32,0.86,4.03,7.54
5.231711387634277,-7.52,2.35,3.9,8.79
5.233906269073486,-8.42,3.83,4.69,10.37
5.23589825630188,-8.59,5.43,5.37,11.49
5.238739252090454,-8.92,6.84,5.18,12.37
5.245235204696655,-9.04,7.6,4.72,12.71
5.2553911209106445,-8.82,7.6,4.34,12.42
5.26549220085144,-8.16,6.92,4.17,11.48
5.27544641494751,-7.8,6.17,3.83,10.65
5.2853593826293945,-7.85,5.31,3.32,10.04
5.295105218887329,-8.34,4.79,3.49,10.23
5.331121206283569,-8.45,4.33,4.08,10.33
5.33331823348999,-8.02,3.92,4.34,9.92
5.335236072540283,-7.6,3.68,4.15,9.4
5.338250160217285,-7.13,3.56,3.8,8.82
5.344524383544922,-6.45,3.74,3.33,8.16
5.355046272277832,-5.36,3.77,2.73,7.09
5.364908218383789,-3.97,3.52,2.26,5.76
5.374845266342163,-2.82,3.49,1.73,4.8
5.384645223617554,-1.96,3.25,1.12,3.95
5.394444227218628,-0.97,2.8,0.81,3.07
5.436538219451904,0.1,2.36,0.32,2.38
5.43873929977417,0.87,1.93,-0.41,2.15
5.44106912612915,1.3,1.53,-1.1,2.28
5.4438581466674805,1.55,1.18,-1.65,2.55
5.445664405822754,1.87,0.79,-2.15,2.95
5.453812122344971,2.4,0.21,-2.86,3.73
5.463958263397217,2.91,-0.43,-3.4,4.49
5.4740002155303955,3.49,-0.85,-3.57,5.06
5.483735084533691,3.76,-1.09,-3.21,5.06
5.49390721321106,3.53,-1.17,-2.5,4.48
5.535760402679443,3.07,-1.09,-1.77,3.7
5.537921190261841,2.93,-1.42,-1.09,3.43
5.540260314941406,2.91,-2.49,-0.12,3.83
5.543111324310303,2.89,-4.12,1.22,5.17
5.545720100402832,2.4,-5.76,2.7,6.79
5.553372383117676,1.02,-7.06,5.05,8.73
5.565104246139526,-0.65,-7.96,7.68,11.08
5.5731401443481445,-1.72,-8.3,8.7,12.14
5.583298206329346,-2.65,-7.25,8.0,11.11
5.59339714050293,-2.6,-4.48,8.67,10.09
5.634648323059082,1.04,-0.11,6.67,6.75
5.636886119842529,0.89,4.14,-3.01,5.19
5.639240264892578,-13.35,1.64,-5.91,14.69
5.642019271850586,-21.56,-12.55,7.38,26.01
5.645494222640991,0.2,-27.74,20.14,34.28
5.652485370635986,15.58,-19.84,11.74,27.82
5.662458419799805,10.81,-1.04,-0.64,10.87
5.672689199447632,5.55,10.08,-0.91,11.54
5.6824750900268555,6.76,15.25,0.63,16.69
5.692345142364502,7.99,16.15,-5.04,18.71
5.735317230224609,7.49,10.84,-13.85,19.11
5.737516403198242,9.23,1.13,-14.2,16.97
5.739880084991455,12.9,-6.5,-6.58,15.87
5.742839336395264,13.88,-8.95,-1.65,16.59
5.745724201202393,9.48,-6.22,-0.52,11.35
5.7517921924591064,2.98,-1.11,1.57,3.54
5.765260219573975,-2.01,1.69,3.88,4.68
5.771797180175781,-3.89,1.74,3.78,5.69
5.782053232192993,-3.72,0.42,3.31,4.99
5.791869163513184,-1.89,-0.95,2.83,3.53
5.801894187927246,0.61,-2.31,1.26,2.7
5.838252305984497,1.99,-2.12,-0.88,3.03
5.840914249420166,2.18,-0.54,-2.43,3.3
5.8428332805633545,1.9,0.89,-2.84,3.53
5.844736099243164,1.3,1.48,-2.83,3.44
5.851092338562012,0.02,1.37,-2.63,2.96
5.860965251922607,-1.32,1.06,-2.03,2.64
5.871400356292725,-2.39,0.8,-0.66,2.6
5.88102912902832,-2.68,0.46,0.97,2.88
5.891284227371216,-2.79,0.18,2.32,3.63
5.901116371154785,-2.91,0.21,1.98,3.52
5.9384942054748535,-2.53,0.14,0.91,2.69
5.940575122833252,-1.93,-0.21,0.58,2.02
5.942968368530273,-0.89,-0.72,0.27,1.17
5.945915222167969,0.23,-1.06,0.14,1.09
5.950568199157715,0.79,-1.05,-0.06,1.31
5.965799331665039,0.38,-0.49,0.1,0.62
5.970278263092041,-0.84,0.34,0.75,1.17
5.980828285217285,-2.3,0.6,0.85,2.52
5.990573406219482,-3.57,0.37,0.4,3.61
6.001196384429932,-4.12,-0.06,0.52,4.15
6.03829026222229,-4.04,-0.37,1.19,4.22
6.0405402183532715,-3.6,-0.34,1.56,3.93
6.042870283126831,-2.82,-0.05,1.83,3.36
6.045975208282471,-2.11,-0.12,2.05,2.94
6.049741268157959,-1.4,-0.7,0.79,1.75
6.063822269439697,-0.67,-0.96,0.59,1.31
6.069570302963257,-0.63,-1.06,0.86,1.5
6.079663276672363,-2.08,-1.09,0.59,2.42
6.089959144592285,-3.4,-1.13,0.28,3.59
6.099564075469971,-3.33,-1.39,0.91,3.72
6.1372151374816895,-3.26,-1.56,2.38,4.32
6.139439105987549,-3.9,-1.22,1.27,4.27
6.141353130340576,-4.46,-0.62,-0.14,4.5
6.143961191177368,-3.83,-0.16,-0.04,3.83
6.149041175842285,-2.64,-0.26,-1.6,3.09
6.159221172332764,-1.82,-0.98,-2.03,2.89
6.168931245803833,-1.78,-1.74,-2.01,3.19
6.179272174835205,-2.7,-2.88,-1.77,4.32
6.189330101013184,-3.28,-4.9,-0.72,5.94
6.199042320251465,-2.54,-7.79,0.16,8.19
6.2429962158203125,-1.4,-11.25,2.71,11.65
6.2452712059021,-1.22,-14.9,7.07,16.53
6.247220277786255,-3.55,-16.36,11.24,20.16
6.249933242797852,-6.62,-12.87,7.89,16.48
6.2527031898498535,-10.17,-9.34,4.75,14.6
6.258186340332031,-9.67,-9.01,5.49,14.31
6.268560409545898,-7.16,-8.75,5.98,12.79
6.2782301902771,-4.21,-7.26,5.96,10.29
6.288417339324951,-0.55,-5.23,2.8,5.95
6.29813814163208,2.16,-4.0,-2.21,5.05
6.340580224990845,4.06,-3.92,-4.97,7.52
6.342703342437744,5.99,-4.07,-4.58,8.56
6.34457540512085,6.48,-3.57,-2.29,7.74
6.347555160522461,5.53,-2.22,-0.38,5.97
6.36549711227417,4.94,-1.16,0.73,5.12
6.367441177368164,4.67,-0.53,1.27,4.86
6.370333194732666,4.0,0.38,1.64,4.33
6.377307415008545,2.91,0.77,1.57,3.39
6.3876612186431885,1.02,1.1,1.91,2.42
6.397386074066162,-0.7,1.75,3.46,3.94
6.439970254898071,-2.05,2.53,4.85,5.84
6.442103385925293,-3.97,3.24,6.04,7.92
6.444076299667358,-6.61,3.97,7.37,10.66
6.447516202926636,-8.27,4.31,7.74,12.11
6.4502034187316895,-8.05,4.36,6.67,11.32
6.456812381744385,-5.72,4.28,5.41,8.96
6.467298269271851,-2.54,4.18,3.82,6.2
6.476713180541992,0.15,4.4,2.3,4.96
6.487135410308838,2.46,4.59,1.48,5.41
6.496756076812744,4.45,4.88,0.88,6.66
6.5409932136535645,6.12,4.75,0.95,7.8
6.543241262435913,7.09,4.81,1.28,8.66
6.545225143432617,6.26,5.45,1.32,8.4
6.547850131988525,3.79,5.8,1.89,7.18
6.5656092166900635,1.64,6.1,2.95,6.97
6.567606210708618,0.37,6.5,3.74,7.5
6.570433139801025,-0.65,6.93,4.45,8.26
6.576112270355225,-1.15,7.04,4.53,8.45
6.5862932205200195,-0.65,6.52,3.99,7.67
6.59645414352417,1.1,5.56,3.86,6.85
6.6065123081207275,3.93,3.99,2.14,5.99
6.6441521644592285,6.52,2.05,-0.24,6.83
6.646856307983398,8.7,-0.17,-0.53,8.71
6.6489152908325195,10.64,-1.81,0.79,10.82
6.651796340942383,11.3,-1.67,0.77,11.44
6.655477285385132,9.53,-0.03,0.87,9.56
6.665875196456909,6.61,1.69,2.22,7.17
6.6756432056427,3.81,2.88,1.42,4.98
6.685740232467651,1.85,2.4,-5.27,6.07
6.695477247238159,2.43,-1.17,-11.05,11.37
6.705635070800781,5.36,-9.43,-4.18,11.62
6.744104385375977,5.76,-17.75,13.16,22.83
6.746791362762451,0.05,-12.82,12.43,17.85
6.748877286911011,-4.88,-1.54,2.45,5.67
6.751638412475586,-3.82,6.02,-4.07,8.2
6.754789352416992,0.94,11.5,-7.78,13.91
6.764959335327148,7.26,14.72,-4.54,17.02
6.774684190750122,9.22,12.59,2.68,15.83
6.785098075866699,6.4,6.64,0.14,9.22
6.795034408569336,5.54,0.05,-3.01,6.3
6.804695129394531,7.95,-7.52,-0.96,10.98
6.843882083892822,9.56,-12.16,-2.06,15.6
6.8464484214782715,6.87,-9.91,-4.19,12.76
6.848663330078125,3.11,-3.93,-3.67,6.21
6.851552248001099,0.84,0.33,-1.73,1.95
6.854534149169922,-0.56,2.45,-0.4,2.54
6.864391326904297,-0.96,3.05,-0.68,3.26
6.874027252197266,-1.34,2.96,-1.14,3.44
6.883998394012451,-0.66,1.75,-1.37,2.31
6.894430160522461,1.23,0.36,-1.49,1.96
6.9041712284088135,2.87,-0.55,-1.0,3.08
6.943101406097412,3.76,-0.77,-0.69,3.89
6.946590423583984,4.03,-0.63,-0.21,4.08
6.948493242263794,3.32,0.02,0.28,3.33
6.951338291168213,2.39,0.44,0.14,2.43
6.953832149505615,1.57,0.67,-0.29,1.73
6.963582277297974,1.07,0.05,0.16,1.08
6.973397254943848,0.61,-1.17,0.65,1.47
6.983781337738037,0.28,-1.85,0.53,1.94
6.9936182498931885,0.06,-1.98,0.23,1.99
7.004489421844482,-0.08,-1.89,0.39,1.93
7.048888206481934,0.11,-1.32,0.76,1.52
7.051631212234497,-0.03,-0.67,1.1,1.28
7.05359411239624,-0.27,-0.3,0.83,0.92
7.056308269500732,-0.53,-0.04,0.34,0.63
7.059030294418335,-0.82,-0.1,-0.01,0.82
7.0627052783966064,-1.21,-0.21,0.02,1.22
7.073124408721924,-1.42,0.1,-0.11,1.42
7.083016395568848,-1.71,0.5,-0.28,1.8
7.093061208724976,-2.35,1.0,-0.64,2.63
7.102835178375244,-2.77,1.64,-0.98,3.36
7.147177219390869,-2.78,2.17,-0.47,3.55
7.14974308013916,-2.56,2.48,-0.58,3.61
7.151668071746826,-3.08,2.41,-0.89,4.01
7.1543803215026855,-3.53,1.96,-0.41,4.05
7.157133102416992,-3.37,1.42,0.02,3.65
7.162120342254639,-3.33,0.96,0.36,3.48
7.171966075897217,-3.2,0.72,1.22,3.49
7.182191371917725,-2.43,0.47,0.34,2.49
7.191955089569092,-1.95,0.1,-0.57,2.03
7.202642202377319,-1.51,-0.37,-0.82,1.75
7.247642278671265,-0.37,-0.56,-0.26,0.71
7.249774217605591,-0.02,-0.85,-0.17,0.86
7.252081394195557,-0.34,-1.87,-0.6,1.99
7.254937171936035,-0.3,-3.39,0.1,3.4
7.257659196853638,-0.52,-4.52,0.7,4.6
7.261576175689697,-1.76,-5.28,1.07,5.66
7.271576404571533,-2.61,-6.19,0.39,6.72
7.282161235809326,-2.11,-7.3,0.75,7.63
7.291264295578003,-1.57,-8.13,1.89,8.49
7.301669120788574,-3.17,-8.46,1.84,9.21
7.346694231033325,-7.08,-9.43,2.27,12.0
7.348822116851807,-10.56,-10.67,3.49,15.41
7.351287364959717,-13.22,-10.73,3.16,17.31
7.3541083335876465,-14.84,-10.26,3.06,18.29
7.356874227523804,-14.18,-9.73,4.1,17.67
7.36063027381897,-11.82,-8.37,5.17,15.37
7.370866298675537,-9.63,-6.76,4.92,12.75
7.380904197692871,-7.57,-7.2,1.86,10.61
7.390872240066528,-3.35,-9.73,-2.99,10.71
7.400687217712402,2.04,-12.11,-5.57,13.48
7.411240100860596,7.0,-12.74,-5.49,15.53
7.450918197631836,11.04,-10.67,-3.91,15.84
7.453128337860107,11.96,-5.73,-5.63,14.4
7.455458164215088,9.7,-1.64,-8.02,12.69
7.458250284194946,6.6,0.0,-6.34,9.15
7.4609692096710205,3.9,0.4,-3.46,5.22
7.470451354980469,1.4,0.08,-2.62,2.97
7.47996711730957,-1.01,-0.89,-1.85,2.28
7.489872217178345,-2.81,-1.9,-0.54,3.43
7.500234127044678,-4.11,-2.11,0.57,4.65
7.510108232498169,-5.64,-1.35,1.61,6.01
7.550737380981445,-6.92,-0.02,2.61,7.39
7.552893161773682,-6.99,1.64,2.92,7.75
7.555240154266357,-6.33,3.64,2.81,7.82
7.558078289031982,-6.17,5.58,2.91,8.81
7.5608532428741455,-6.68,7.2,3.27,10.35
7.569234371185303,-7.31,8.44,3.2,11.61
7.579233169555664,-7.36,8.76,2.82,11.78
7.589609146118164,-6.88,8.65,2.34,11.29
7.59923529624939,-6.46,8.62,1.84,10.92
7.609395265579224,-5.98,8.34,1.56,10.38
7.650086402893066,-5.58,8.17,1.55,10.01
7.652192115783691,-5.26,7.81,2.25,9.68
7.6545891761779785,-5.01,7.67,2.54,9.5
7.657134294509888,-4.64,7.75,2.37,9.33
7.659526348114014,-3.92,8.07,2.02,9.19
7.669150352478027,-2.88,8.58,1.63,9.19
7.679076194763184,-2.06,9.02,1.45,9.36
7.6890764236450195,-1.26,9.07,0.72,9.18
7.698726177215576,-0.56,8.69,-0.41,8.71
7.708751201629639,0.04,8.2,-0.33,8.2
7.749316215515137,0.9,7.59,-0.09,7.64
7.751781225204468,2.01,7.14,-0.5,7.43
7.753583192825317,3.29,6.98,-1.19,7.8
7.764810085296631,4.75,6.84,-1.33,8.43
7.766908168792725,6.16,6.73,-1.69,9.27
7.769451141357422,7.0,6.56,-1.32,9.68
7.778010368347168,7.83,6.34,-0.65,10.09
7.788051128387451,8.54,6.79,-0.25,10.91
7.797764301300049,8.41,8.01,-0.47,11.62
7.808114290237427,6.45,8.24,-9.72,14.28
7.8543500900268555,5.91,5.15,-33.8,34.69
7.8568572998046875,13.69,-12.44,-21.03,28.0
7.858762264251709,28.88,-52.56,44.48,74.66
7.864211082458496,4.86,-37.56,12.17,39.78
7.866391181945801,-6.09,-6.43,-23.34,24.96
7.869201183319092,-3.79,5.61,-14.8,16.27
7.877092361450195,-3.64,12.73,0.12,13.24
7.887509346008301,-3.28,14.36,0.41,14.73
7.897106170654297,-0.66,14.57,0.87,14.61
7.907125234603882,-0.24,11.59,2.4,11.83
7.954001426696777,0.56,6.23,-1.35,6.39
7.9568212032318115,2.43,0.85,-4.57,5.24
7.958743095397949,5.23,-4.37,-1.44,6.96
7.9615702629089355,9.6,-9.0,1.13,13.2
7.964329242706299,10.78,-10.17,0.6,14.83
7.966438293457031,7.61,-6.5,0.5,10.02
7.984801292419434,3.81,-2.02,1.2,4.47
7.986893177032471,0.82,1.17,1.15,1.83
7.996458292007446,-1.6,3.41,0.02,3.76
8.007020235061646,-2.21,4.07,0.12,4.63
8.052788257598877,-1.25,3.77,0.31,3.98
8.055654287338257,0.72,2.34,0.06,2.44
8.057574272155762,2.19,0.65,0.33,2.3
8.060505390167236,2.48,-0.89,0.55,2.69
8.063254356384277,2.15,-1.94,0.52,2.94
8.066134214401245,1.55,-2.33,0.69,2.88
8.082541227340698,0.84,-2.09,0.55,2.31
8.085714340209961,-0.12,-1.32,0.35,1.37
8.0957772731781,-0.83,-0.72,0.47,1.19
8.10593318939209,-0.98,-0.12,0.33,1.04
8.152414321899414,-1.01,0.55,-0.06,1.15
8.155019283294678,-1.18,1.18,-0.45,1.72
8.156927108764648,-1.37,1.63,-0.41,2.16
8.159683227539062,-0.97,1.96,-0.01,2.18
8.162314414978027,-0.73,2.11,0.07,2.23
8.165605306625366,-1.22,2.33,0.1,2.63
8.17539930343628,-1.49,1.8,0.34,2.36
8.18541431427002,-1.51,1.35,0.66,2.13
8.195119380950928,-1.31,1.15,1.25,2.14
8.204931259155273,-1.31,0.96,1.63,2.3
8.215021133422852,-2.31,0.78,1.52,2.87
8.257568359375,-3.83,0.81,1.97,4.38
8.259767293930054,-4.45,0.37,2.61,5.17
8.261683225631714,-3.93,-0.53,2.18,4.52
8.264771223068237,-3.53,-1.56,1.96,4.32
8.267599105834961,-3.75,-2.35,2.12,4.9
8.274302244186401,-4.25,-2.79,0.38,5.09
8.284549236297607,-4.77,-2.88,-0.73,5.61
8.294950246810913,-4.44,-2.73,0.62,5.24
8.304686307907104,-4.03,-2.63,-0.01,4.81
8.314355373382568,-3.44,-2.81,-2.46,5.07
8.356363296508789,-0.96,-3.0,-1.81,3.63
8.358543395996094,1.38,-3.31,-1.57,3.91
8.360511302947998,2.53,-3.55,-0.81,4.43
8.36394739151001,2.73,-3.69,-1.6,4.86
8.36602520942688,1.57,-4.45,-0.17,4.72
8.382140159606934,-0.42,-5.94,1.01,6.03
8.384174346923828,-4.06,-7.27,1.44,8.45
8.393877267837524,-8.14,-8.39,2.43,11.93
8.40369725227356,-10.47,-8.65,2.31,13.77
8.413705348968506,-11.81,-7.98,2.43,14.45
8.45634937286377,-12.17,-7.44,2.86,14.54
8.45852518081665,-11.42,-6.87,3.61,13.8
8.460508346557617,-9.79,-5.97,5.29,12.62
8.463856220245361,-7.63,-5.38,4.78,10.48
8.465794086456299,-5.67,-6.05,2.63,8.69
8.481864213943481,-2.46,-8.18,-0.9,8.58
8.483802318572998,0.67,-10.58,-3.31,11.1
8.493151187896729,3.21,-11.66,-3.68,12.64
8.503233194351196,7.03,-10.8,-2.56,13.13
8.513004302978516,9.39,-7.88,-2.84,12.58
8.55573320388794,9.38,-3.91,-5.5,11.55
8.557933330535889,7.38,-0.61,-7.06,10.23
8.55989122390747,5.36,0.75,-5.96,8.05
8.562414169311523,4.19,0.56,-4.54,6.2
8.564270257949829,3.64,-0.97,-3.38,5.06
8.572363376617432,2.0,-2.35,-1.89,3.61
8.582725286483765,-0.14,-2.69,-1.03,2.88
8.592479228973389,-2.64,-2.26,0.5,3.51
8.602312088012695,-4.71,-2.1,2.04,5.54
8.612152099609375,-5.43,-1.11,3.1,6.35
8.66235637664795,-5.65,0.24,4.2,7.04
8.664504289627075,-5.84,2.76,4.38,7.8
8.666852235794067,-6.34,4.73,3.99,8.85
8.669236183166504,-7.12,6.3,4.27,10.42
8.671942234039307,-7.76,6.94,4.68,11.41
8.674655199050903,-8.3,7.16,4.72,11.93
8.681647300720215,-8.39,7.23,4.17,11.83
8.691511154174805,-8.03,7.32,3.71,11.48
8.701895236968994,-7.41,6.97,3.3,10.69
8.71153736114502,-6.69,6.33,3.26,9.76
8.760263204574585,-5.71,6.2,3.37,9.07
8.762391090393066,-4.87,6.64,2.75,8.68
8.764307260513306,-3.86,7.03,2.02,8.27
8.767204284667969,-2.95,7.38,2.22,8.25
8.769987106323242,-1.97,7.72,2.84,8.45
8.772680282592773,-1.03,8.17,2.53,8.61
8.781320095062256,-0.21,8.53,1.15,8.6
8.79110336303711,0.31,8.75,-0.03,8.75
8.8009033203125,0.97,8.76,-0.33,8.81
8.811151266098022,1.99,8.58,-1.15,8.88
8.86036729812622,2.77,8.25,-2.09,8.95
8.862622261047363,3.2,7.94,-1.39,8.67
8.864479303359985,4.19,7.57,-0.58,8.67
8.867115259170532,4.95,7.47,-0.69,8.98
8.869890213012695,5.24,7.72,-1.34,9.42
8.872616291046143,5.23,8.08,-1.48,9.73
8.88028335571289,4.87,8.68,-1.0,10.0
8.890099287033081,4.83,9.61,-0.39,10.76
8.900193214416504,4.68,10.2,-8.84,14.28
8.910370349884033,5.87,8.75,-37.7,39.14
8.95951223373413,12.34,-4.04,-24.31,27.56
8.96161413192749,21.12,-44.2,42.95,65.14
8.964941263198853,5.08,-45.2,14.51,47.74
8.967629194259644,0.98,-12.34,-21.38,24.7
8.982554197311401,6.28,1.57,-9.68,11.64
8.98455810546875,1.85,6.17,3.41,7.28
8.988302230834961,-3.94,8.0,-2.14,9.17
8.991082191467285,-7.04,12.43,-1.54,14.36
8.999417304992676,-6.07,16.1,1.85,17.3
9.009763240814209,0.98,10.91,-0.58,10.96
9.019675254821777,5.7,3.21,-1.0,6.61
9.06338620185852,9.16,-3.64,-0.19,9.85
9.066084384918213,9.37,-8.65,-1.15,12.8
9.068040370941162,6.95,-10.53,-1.27,12.68
9.07078218460083,4.39,-8.25,0.9,9.38
9.073552131652832,1.72,-4.01,1.96,4.78
9.078757286071777,-0.82,-0.14,1.14,1.41
9.089124202728271,-1.27,2.25,0.62,2.65
9.09923529624939,-1.14,3.8,0.23,3.97
9.109125137329102,-0.16,4.15,-0.41,4.17
9.118886232376099,1.24,3.12,0.06,3.35
9.162957191467285,2.46,1.85,0.07,3.07
9.165132284164429,3.28,0.23,-0.35,3.3
9.167482376098633,3.53,-1.04,0.01,3.68
9.170290231704712,3.15,-1.67,0.39,3.58
9.173099279403687,1.64,-1.47,0.36,2.23
9.178139209747314,-0.2,-1.03,0.71,1.26
9.188453197479248,-1.18,-0.74,1.23,1.85
9.198751211166382,-1.35,0.11,0.94,1.64
9.208465099334717,-1.12,0.49,0.56,1.34
9.21812915802002,-0.99,0.42,0.35,1.13
9.262811183929443,-0.97,0.27,-0.25,1.03
9.264994144439697,-1.17,0.41,-0.69,1.41
9.266939163208008,-1.38,0.86,-1.09,1.95
9.269623279571533,-1.14,1.43,-1.34,2.26
9.272375106811523,-1.39,1.95,-0.41,2.42
9.277443408966064,-1.79,2.17,0.17,2.81
9.287742137908936,-2.34,1.89,0.2,3.01
9.297468185424805,-2.39,1.51,0.97,2.98
9.307680130004883,-1.57,1.0,1.46,2.36
9.31765627861023,-1.46,0.58,1.73,2.33
9.363298416137695,-1.34,0.47,2.24,2.65
9.365363121032715,-1.12,0.6,2.34,2.66
9.36753511428833,-2.34,0.62,1.9,3.07
9.370123386383057,-3.71,0.1,1.42,3.97
9.372604370117188,-4.36,-0.81,0.43,4.45
9.37696123123169,-4.47,-1.96,-0.24,4.88
9.387258291244507,-3.57,-2.88,0.54,4.61
9.39686107635498,-2.88,-3.03,0.07,4.18
9.407200336456299,-2.75,-2.67,-0.59,3.87
9.416771411895752,-2.19,-2.22,-1.02,3.28
9.467258214950562,-1.25,-1.85,-1.27,2.56
9.469423294067383,-0.32,-1.72,-1.79,2.5
9.471363306045532,0.76,-2.23,-2.31,3.29
9.473864078521729,1.51,-3.29,-1.07,3.77
9.476597309112549,1.08,-4.36,-1.28,4.67
9.479234218597412,-0.46,-5.39,-0.27,5.41
9.48606538772583,-2.52,-6.52,1.61,7.17
9.496010303497314,-5.11,-7.86,3.61,10.04
9.506339073181152,-8.6,-9.23,4.44,13.37
9.516083240509033,-11.34,-10.08,4.95,15.95
9.56698727607727,-11.53,-9.52,4.48,15.6
9.56922435760498,-9.55,-8.08,3.28,12.93
9.571173191070557,-8.94,-6.69,2.82,11.51
9.573901176452637,-9.12,-5.64,3.0,11.13
9.576662302017212,-8.17,-5.4,2.04,10.0
9.579289197921753,-7.02,-6.35,-1.17,9.53
9.585419178009033,-4.62,-8.26,-2.54,9.79
9.595278263092041,0.14,-9.78,-2.1,10.0
9.605706214904785,4.44,-10.55,-3.37,11.93
9.615347385406494,8.59,-10.41,-3.62,13.97
9.666110277175903,11.09,-7.43,-3.6,13.82
9.668398380279541,10.75,-2.55,-4.92,12.09
9.670391082763672,8.99,0.34,-5.12,10.35
9.673173427581787,6.77,0.75,-3.99,7.89
9.675856113433838,4.03,0.33,-2.89,4.97
9.678651332855225,1.22,-0.51,-1.93,2.33
9.684731245040894,-0.99,-1.41,-1.15,2.07
9.695013284683228,-2.62,-2.29,-0.12,3.48
9.70481014251709,-4.18,-2.5,0.84,4.94
9.714770317077637,-5.54,-1.95,1.99,6.2
9.766124248504639,-5.86,-0.6,2.81,6.52
9.768300294876099,-5.45,1.0,3.08,6.33
9.770216226577759,-5.43,3.35,2.73,6.93
9.7729811668396,-5.13,4.66,2.69,7.43
9.775716304779053,-5.03,5.65,2.82,8.07
9.778454303741455,-5.37,6.8,2.63,9.05
9.784271240234375,-5.65,7.06,2.54,9.39
9.79421615600586,-5.6,7.11,2.53,9.39
9.804327249526978,-5.43,7.14,2.31,9.26
9.814001083374023,-5.2,6.9,2.26,8.93
9.824047088623047,-5.08,6.51,2.66,8.67
9.869630336761475,-4.89,6.4,3.07,8.61
9.872310161590576,-4.44,6.89,2.71,8.63
9.874245166778564,-3.93,7.52,2.46,8.83
9.876989364624023,-3.28,8.05,2.25,8.97
9.87958812713623,-2.66,8.45,1.77,9.03
9.883668422698975,-2.02,8.58,1.57,8.95
9.893665313720703,-1.39,8.3,1.78,8.6
9.903348207473755,-0.66,7.56,1.74,7.78
9.913312196731567,-0.15,6.96,1.56,7.13
9.923564195632935,0.2,6.6,1.38,6.74
9.969669342041016,0.31,6.23,1.74,6.47
9.972244262695312,0.56,5.74,2.14,6.15
9.974157333374023,1.1,5.09,1.4,5.39
9.976960182189941,1.63,4.18,1.06,4.61
9.979440212249756,2.44,3.26,1.66,4.39
9.982973098754883,3.57,2.79,2.1,4.99
9.992478370666504,4.97,3.39,1.31,6.15
10.002960205078125,6.32,5.17,0.02,8.16
10.012654304504395,7.1,7.67,-0.48,10.46
10.022675275802612,7.06,10.48,-0.47,12.64
10.069369316101074,6.32,13.14,-3.93,15.1
10.072267293930054,4.01,11.99,-30.98,33.46
10.074222087860107,3.5,-0.72,-44.36,44.5
10.076651096343994,16.41,-49.36,34.61,62.47
10.079209327697754,14.97,-54.46,38.07,68.11
10.082269191741943,1.96,-12.69,-15.83,20.38
10.092084407806396,7.07,3.94,-17.84,19.59
10.101916313171387,9.15,10.92,3.93,14.77
10.112189292907715,0.59,14.41,2.06,14.56
10.122088193893433,-9.59,16.65,-0.88,19.23
10.16878628730774,-13.67,14.44,-0.29,19.88
10.171415328979492,-5.55,6.99,1.14,8.99
10.173399209976196,2.23,-0.28,0.09,2.24
10.175998210906982,9.72,-6.94,-1.91,12.09
10.178686141967773,14.2,-11.3,-1.99,18.25
10.181469202041626,11.82,-10.75,-0.71,15.99
10.191212177276611,5.47,-5.4,-0.05,7.68
10.201313257217407,1.42,-0.83,0.21,1.65
10.211555242538452,-0.55,1.61,0.99,1.96
10.221395254135132,-1.87,3.08,0.91,3.71
10.273536205291748,-2.01,3.39,-0.37,3.95
10.27610731124878,-0.71,2.96,-0.91,3.17
10.278109073638916,0.86,1.96,-0.11,2.14
10.281530380249023,1.84,0.79,0.29,2.02
10.283716201782227,2.33,-0.84,0.12,2.47
10.300945281982422,1.98,-1.65,0.41,2.6
10.303059101104736,1.4,-1.43,-0.09,2.0
10.305881261825562,1.06,-0.66,-0.58,1.37
10.310360193252563,0.78,0.09,-0.29,0.83
10.320767402648926,0.55,0.4,-0.17,0.7
10.3720703125,-0.23,0.75,-0.31,0.84
10.374789237976074,-0.82,0.98,-0.21,1.29
10.37673807144165,-0.85,1.0,-0.1,1.31
10.379199266433716,-0.69,1.06,0.03,1.26
10.381678104400635,-0.34,0.94,0.31,1.04
10.384454250335693,-0.48,0.98,0.38,1.15
10.401698112487793,-1.07,0.83,0.57,1.46
10.403786182403564,-1.72,0.81,0.74,2.04
10.409675121307373,-2.46,0.83,0.63,2.67
10.419734239578247,-3.09,0.56,0.72,3.22
10.471181392669678,-3.35,0.19,0.57,3.4
10.473257303237915,-3.54,0.34,0.43,3.58
10.475556373596191,-3.14,0.8,0.87,3.35
10.478382110595703,-2.28,0.82,1.67,2.94
10.481279373168945,-1.79,0.52,1.69,2.51
10.483199119567871,-2.18,0.07,1.76,2.8
10.500160217285156,-3.14,-0.55,2.61,4.11
10.502174377441406,-4.64,-1.27,2.29,5.32
10.508988380432129,-5.82,-1.73,-0.12,6.07
10.519420146942139,-5.97,-1.55,-1.42,6.32
10.570772171020508,-4.45,-0.96,-1.41,4.76
10.572977304458618,-2.28,-0.32,-1.62,2.81
10.575330257415771,-0.75,-0.48,-1.38,1.64
10.5782151222229,0.71,-1.57,-0.32,1.75
10.581369400024414,0.88,-2.72,-0.15,2.86
10.583484172821045,-0.69,-3.58,-0.1,3.64
10.60023307800293,-1.87,-4.04,0.19,4.45
10.60216236114502,-1.92,-3.9,-0.7,4.4
10.608295202255249,-1.04,-3.61,-1.4,4.0
10.618528366088867,0.9,-3.93,-1.1,4.17
10.628678321838379,2.81,-5.29,0.7,6.03
10.674803256988525,3.4,-7.35,1.23,8.19
10.677027225494385,1.83,-9.66,0.48,9.84
10.679420232772827,-1.16,-12.24,3.87,12.88
10.682112216949463,-3.42,-13.02,5.25,14.44
10.684171199798584,-5.55,-11.12,4.16,13.1
10.699432373046875,-6.18,-8.33,3.71,11.01
10.701420307159424,-6.93,-4.69,2.66,8.78
10.707719326019287,-8.44,-1.2,1.84,8.72
10.71812915802002,-8.8,0.34,0.2,8.8
10.7277672290802,-7.71,-0.91,-0.59,7.78
10.775388240814209,-3.82,-4.49,-3.6,6.9
10.777483224868774,-1.31,-7.89,-6.12,10.07
10.779840230941772,2.21,-9.62,-4.75,10.95
10.781773090362549,7.91,-8.94,-2.21,12.13
10.784777164459229,10.14,-6.15,-3.16,12.27
10.787519216537476,8.01,-3.4,-3.51,9.38
10.797053337097168,4.94,-1.72,-2.05,5.61
10.807031154632568,2.54,-1.15,-0.24,2.79
10.81712532043457,0.54,-0.88,1.22,1.59
10.82717227935791,-1.85,-0.37,2.31,2.98
10.874475240707397,-3.93,-0.23,2.53,4.67
10.877203226089478,-5.37,0.34,3.24,6.28
10.87916612625122,-6.09,1.26,4.62,7.74
10.881974220275879,-6.83,2.27,5.42,9.0
10.884088277816772,-7.19,3.46,5.82,9.87
10.89972734451294,-6.84,4.75,5.99,10.25
10.901713371276855,-6.58,5.68,5.68,10.38
10.90616226196289,-6.58,6.19,5.29,10.46
10.916242122650146,-6.29,6.29,5.33,10.37
10.926610231399536,-6.08,6.35,5.53,10.38
10.974593162536621,-6.05,5.81,5.38,9.96
10.977325201034546,-6.39,5.14,5.13,9.67
10.979287147521973,-6.61,4.78,4.83,9.47
10.98250126838684,-6.47,4.45,4.35,8.97
10.985393285751343,-6.38,4.1,3.84,8.5
10.98820424079895,-5.98,3.54,3.49,7.77
10.995610237121582,-5.35,3.04,3.37,7.01
11.006084203720093,-4.8,2.91,3.04,6.38
11.015581130981445,-4.02,2.95,2.75,5.69
11.025871276855469,-3.11,3.06,2.56,5.05
11.079408168792725,-2.28,3.08,2.18,4.4
11.082070350646973,-1.82,3.2,1.59,4.01
11.083972215652466,-1.49,3.2,0.89,3.64
11.086498260498047,-0.94,2.92,0.24,3.07
11.089138269424438,-0.51,2.5,-0.47,2.59
11.091881275177002,-0.18,2.01,-1.28,2.38
11.09498119354248,-0.16,1.38,-2.11,2.52
11.105445384979248,0.02,0.61,-2.4,2.47
11.115076303482056,1.07,0.08,-2.45,2.67
11.125547409057617,2.6,-0.11,-3.2,4.12
11.178866386413574,4.14,0.04,-4.08,5.81
11.18121337890625,5.16,0.49,-4.51,6.87
11.183164119720459,5.6,0.9,-4.35,7.14
11.185815334320068,5.17,1.01,-4.0,6.61
11.188603401184082,4.21,0.44,-2.86,5.1
11.191376209259033,3.71,-0.49,-1.13,3.9
11.194355249404907,3.54,-1.79,0.64,4.01
11.204267263412476,3.33,-3.36,2.31,5.26
11.214234352111816,2.33,-5.0,3.73,6.65
11.2245352268219,0.59,-6.5,4.96,8.19
11.27849817276001,-1.17,-7.82,6.27,10.09
11.281329154968262,-1.45,-8.26,8.36,11.84
11.283290386199951,1.15,-5.58,9.54,11.11
11.287049293518066,3.83,-0.54,7.06,8.05
11.28982424736023,4.35,4.04,2.4,6.4
11.292611122131348,4.84,5.13,0.04,7.05
11.295303344726562,3.92,2.32,-1.08,4.68
11.303518295288086,-6.68,-2.68,-1.46,7.34
11.313539266586304,-26.12,-13.81,5.43,30.04
11.324740409851074,-22.51,-33.04,18.52,44.06
11.378343105316162,4.25,-27.48,10.38,29.68
11.381199359893799,6.98,-5.9,-4.08,10.0
11.383249282836914,2.79,5.76,7.43,9.8
11.386139392852783,1.67,13.45,13.32,19.0
11.388845205307007,2.64,19.12,2.61,19.47
11.391618251800537,4.06,15.84,-13.44,21.16
11.394310235977173,8.83,5.55,-22.51,24.8
11.403269290924072,17.16,-4.12,-14.9,23.09
11.412745237350464,22.7,-8.28,-1.56,24.21
11.42308235168457,15.85,-5.73,-0.29,16.85
11.433106422424316,5.07,-1.1,-2.94,5.96
11.483894348144531,-2.87,1.64,0.92,3.43
11.48599123954773,-6.77,1.67,5.69,8.99
11.487889289855957,-7.09,0.08,6.24,9.44
11.490645408630371,-5.16,-1.31,4.23,6.79
11.493496417999268,-1.18,-2.22,1.85,3.12
11.496218204498291,3.14,-2.63,0.41,4.11
11.502224206924438,5.91,-1.77,-0.28,6.17
11.512386322021484,6.43,-0.55,-1.66,6.66
11.522783279418945,4.87,0.21,-2.77,5.6
11.532325267791748,2.31,1.0,-2.3,3.4
11.58279824256897,-0.06,1.21,-1.34,1.8
11.584953308105469,-1.56,0.98,-0.35,1.87
11.586877346038818,-1.89,0.49,0.55,2.02
11.589613199234009,-1.58,-0.12,1.24,2.01
11.592357158660889,-1.18,-0.43,1.36,1.85
11.59520435333252,-0.69,-0.53,0.94,1.28
11.601452350616455,-0.3,-0.46,0.67,0.86
11.611841201782227,0.02,-0.27,0.39,0.47
11.621537208557129,0.1,-0.11,-0.1,0.17
11.631577253341675,-0.38,-0.13,-0.52,0.65
11.683139324188232,-0.99,-0.17,-0.51,1.12
11.685305118560791,-1.36,-0.36,-0.13,1.41
11.68722128868103,-1.5,-0.54,0.24,1.61
11.689919233322144,-1.65,-0.42,0.43,1.75
11.69258737564087,-1.78,0.04,0.62,1.88
11.695366382598877,-1.99,0.44,0.82,2.19
11.700998306274414,-1.92,0.37,0.81,2.11
11.710945129394531,-1.7,0.27,1.17,2.08
11.7211012840271,-1.53,0.25,1.54,2.18
11.730825424194336,-1.78,-0.13,1.38,2.25
11.781981229782104,-2.2,-0.88,1.18,2.64
11.784170150756836,-1.98,-1.14,1.41,2.68
11.786069393157959,-1.02,-0.85,1.21,1.79
11.788793087005615,-0.12,-0.54,0.94,1.09
11.791531085968018,-0.04,-0.34,1.15,1.19
11.794281244277954,-0.24,-0.6,1.45,1.58
11.800608158111572,-0.55,-0.84,0.34,1.06
11.810440301895142,-0.6,-0.69,0.04,0.91
11.82042121887207,-0.47,-0.42,0.31,0.7
11.830194234848022,-1.12,-0.59,0.22,1.28
11.886987209320068,-2.0,-1.36,-0.03,2.41
11.889204263687134,-2.69,-1.92,0.59,3.35
11.891153335571289,-3.27,-1.66,1.14,3.84
11.89387822151184,-4.07,-1.03,0.87,4.28
11.89667820930481,-5.14,-0.44,1.26,5.31
11.899267196655273,-5.74,-0.23,0.85,5.8
11.901196241378784,-5.07,-0.53,-0.51,5.12
11.920773267745972,-3.68,-1.44,0.4,3.97
11.922783374786377,-3.17,-2.87,0.25,4.28
11.929588317871094,-4.09,-5.01,0.18,6.46
11.985164165496826,-4.37,-7.82,0.12,8.95
11.987346172332764,-4.01,-10.87,3.99,12.25
11.989346265792847,-3.07,-14.28,5.62,15.65
11.992050170898438,-4.69,-17.25,6.85,19.14
11.99467134475708,-7.5,-17.91,10.61,22.12
11.997081279754639,-9.25,-15.59,10.82,21.11
11.998935222625732,-10.77,-12.15,8.06,18.12
12.009064197540283,-9.5,-9.18,7.53,15.2
12.01884126663208,-5.88,-6.75,6.38,10.99
12.028716087341309,-0.89,-5.06,2.71,5.8
12.08569622039795,3.38,-4.0,-2.09,5.63
12.087743282318115,5.75,-3.58,-4.01,7.87
12.089978218078613,7.75,-3.28,-3.67,9.18
12.092816352844238,9.03,-2.45,-2.9,9.79
12.095581293106079,7.98,-0.73,-2.41,8.36
12.098723411560059,6.42,0.98,-1.69,6.71
12.101145267486572,5.28,2.19,-0.26,5.72
12.118327140808105,4.63,3.02,1.05,5.62
12.12030029296875,3.97,3.0,1.75,5.27
12.127816200256348,2.67,2.6,1.8,4.13
12.184842109680176,1.04,2.4,1.71,3.12
12.186928272247314,-0.55,2.59,2.45,3.6
12.189133167266846,-2.69,3.0,4.27,5.87
12.191933155059814,-4.67,3.25,5.63,8.0
12.19467830657959,-5.68,3.23,6.12,8.95
12.197332382202148,-5.84,3.56,5.83,8.98
12.19916319847107,-4.77,3.7,5.05,7.87
12.207677364349365,-3.0,3.39,4.23,6.19
12.217595100402832,-0.98,2.88,3.49,4.62
12.227163314819336,1.03,2.17,2.5,3.46
12.237698078155518,3.05,1.58,1.37,3.69
12.289219379425049,4.58,1.62,0.68,4.9
12.291449308395386,5.6,2.17,0.21,6.0
12.2937331199646,5.87,3.02,-0.19,6.6
12.296488285064697,4.86,4.33,0.15,6.51
12.299182415008545,3.43,5.29,1.17,6.41
12.301741123199463,2.23,5.64,1.69,6.29
12.317909240722656,1.19,5.8,2.09,6.27
12.319926261901855,0.66,5.6,2.82,6.3
12.326415300369263,0.5,4.86,3.79,6.18
12.33706521987915,0.73,4.0,4.49,6.05
12.388227224349976,0.97,3.4,4.84,5.99
12.390259265899658,0.97,2.95,5.11,5.97
12.392569303512573,1.35,2.64,4.77,5.61
12.395246267318726,1.76,2.78,3.45,4.76
12.398651123046875,2.24,2.9,3.0,4.73
12.400495290756226,3.5,2.68,3.09,5.38
12.406262397766113,5.01,2.4,1.93,5.88
12.416176319122314,6.14,2.14,0.59,6.52
12.425960302352905,7.5,1.91,-0.02,7.73
12.435935258865356,8.54,1.83,-1.0,8.79
12.487958192825317,8.44,1.47,-0.54,8.58
12.490140199661255,8.16,1.26,0.38,8.26
12.49202823638916,7.69,1.68,0.89,7.92
12.494763374328613,6.5,2.56,0.99,7.05
12.497342109680176,4.65,2.96,-4.67,7.22
12.499189376831055,2.07,0.73,-14.14,14.3
12.505259275436401,0.3,-9.93,-12.54,15.99
12.515250205993652,-0.34,-27.47,9.12,28.94
12.525143146514893,-2.38,-22.41,15.13,27.14
12.535356283187866,-5.29,-3.88,-0.26,6.56
12.587391376495361,-4.12,5.7,-6.27,9.42
12.589462280273438,1.07,10.89,-4.14,11.69
12.591393232345581,7.49,12.86,0.59,14.89
12.59419322013855,9.21,10.76,5.12,15.06
12.596972227096558,6.68,7.0,0.31,9.68
12.599616289138794,5.03,2.87,-5.07,7.69
12.604620218276978,6.54,-1.97,-3.72,7.77
12.617077350616455,8.75,-6.15,-1.54,10.8
12.624428272247314,8.25,-6.15,-1.88,10.46
12.634831190109253,5.29,-3.28,-2.95,6.88
12.692524194717407,2.32,-0.5,-2.6,3.52
12.694628238677979,1.24,0.51,-0.87,1.59
12.696560382843018,-0.17,0.67,-0.65,0.94
12.699466228485107,-0.98,0.64,-0.99,1.53
12.701520204544067,-0.7,0.36,-0.93,1.21
12.716936111450195,0.53,0.48,-0.87,1.12
12.718875408172607,2.83,0.44,-0.84,2.98
12.722609281539917,3.95,-0.1,-0.15,3.95
12.725287199020386,3.35,0.2,-1.14,3.54
12.73385238647461,2.63,0.48,-0.88,2.81
12.791227340698242,1.98,0.54,-0.22,2.06
12.793346405029297,1.49,0.58,-0.37,1.64
12.795271396636963,1.21,0.46,-0.15,1.3
12.798930168151855,0.84,0.25,0.05,0.87
12.800803184509277,0.33,0.0,0.06,0.33
12.803327083587646,-0.33,-0.29,0.18,0.47
12.806011199951172,-1.17,-0.54,0.18,1.3
12.813307285308838,-1.98,-0.77,0.06,2.12
12.823389291763306,-2.03,-0.78,-0.16,2.18
12.833242416381836,-1.22,-0.45,-0.45,1.37
12.891664266586304,-0.38,-0.23,-0.31,0.54
12.893704414367676,-0.28,-0.02,-0.37,0.46
12.895652294158936,-1.05,0.28,-0.52,1.2
12.900073289871216,-2.05,0.03,-0.4,2.08
12.902904272079468,-2.93,-0.38,-0.35,2.97
12.905420303344727,-3.6,-0.51,-0.27,3.64
12.908210277557373,-3.86,-0.39,0.11,3.88
12.91251826286316,-3.81,-0.11,0.32,3.82
12.923160076141357,-3.23,0.24,0.92,3.36
12.932452201843262,-2.41,0.76,1.5,2.93
12.990761280059814,-1.86,1.08,1.04,2.38
12.992998123168945,-1.9,1.18,0.67,2.33
12.99490737915039,-2.3,1.03,0.83,2.65
12.997565269470215,-2.41,0.69,1.2,2.77
12.999401092529297,-2.27,0.12,1.4,2.66
13.002750396728516,-3.08,-0.92,1.99,3.78
13.00549030303955,-4.15,-2.27,1.96,5.12
13.011735200881958,-4.21,-3.39,0.46,5.42
13.022127151489258,-3.23,-4.1,0.47,5.24
13.031713247299194,-2.25,-4.72,1.16,5.35
13.042363166809082,-1.24,-4.55,0.89,4.79
13.096083164215088,-0.35,-3.78,1.62,4.12
13.09933614730835,0.47,-3.43,1.3,3.69
13.10137414932251,1.04,-3.92,2.0,4.52
13.104148387908936,0.86,-4.89,2.69,5.64
13.106807231903076,0.22,-5.65,1.31,5.8
13.109482288360596,-0.45,-6.63,1.0,6.72
13.11235523223877,-1.86,-8.65,1.92,9.05
13.121016263961792,-3.92,-10.88,2.6,11.85
13.131535291671753,-6.56,-11.72,3.06,13.77
13.14168119430542,-8.66,-11.11,3.34,14.47
13.19523811340332,-9.05,-9.66,3.12,13.59
13.19786024093628,-7.5,-7.64,2.52,10.99
13.199768304824829,-7.64,-5.39,2.84,9.77
13.202778339385986,-10.03,-4.07,2.29,11.06
13.205545425415039,-11.47,-4.44,0.32,12.3
13.20831823348999,-6.83,-5.89,-4.02,9.87
13.211158275604248,-0.52,-7.65,-6.75,10.21
13.22071123123169,4.95,-10.53,-5.1,12.7
13.230584144592285,9.59,-11.96,-4.5,15.97
13.240398406982422,10.15,-8.16,-6.0,14.33
13.295289278030396,7.51,-3.32,-5.28,9.76
13.298885345458984,5.8,-1.37,-3.98,7.16
13.300917148590088,4.82,-1.14,-3.71,6.18
13.303677082061768,3.23,-1.32,-2.9,4.53
13.306341171264648,0.85,-2.21,-1.29,2.69
13.309084415435791,-2.12,-2.57,0.44,3.36
13.311874389648438,-4.8,-2.46,2.29,5.85
13.319732189178467,-7.23,-1.93,3.7,8.34
13.32969617843628,-8.87,-0.61,4.43,9.93
13.340073108673096,-8.76,1.79,5.17,10.32
13.394659280776978,-8.03,3.9,5.07,10.26
13.397257328033447,-8.0,6.01,4.55,10.99
13.399184226989746,-8.04,7.46,4.24,11.75
13.40129828453064,-7.53,8.09,3.9,11.72
13.419379234313965,-6.58,8.35,3.28,11.12
13.421427249908447,-5.99,8.25,2.77,10.56
13.424144268035889,-5.65,7.88,2.98,10.14
13.42688512802124,-5.06,7.38,3.4,9.57
13.429646253585815,-4.28,7.15,3.38,8.99
13.438823223114014,-3.55,7.05,2.81,8.37
13.498583316802979,-3.11,7.18,2.36,8.17
13.501128196716309,-2.37,7.33,2.87,8.22
13.503028392791748,-1.43,7.57,3.57,8.49
13.505723237991333,-0.57,8.05,3.47,8.78
13.508392333984375,0.09,8.52,2.6,8.9
13.51113224029541,0.83,8.81,1.55,8.98
13.513849258422852,1.62,8.92,0.34,9.07
13.518612384796143,2.34,8.82,-0.94,9.17
13.528398275375366,3.27,8.26,-1.48,9.0
13.538233280181885,4.59,6.96,-1.68,8.5
13.599685192108154,5.9,5.69,-2.56,8.58
13.602174282073975,7.18,4.81,-3.02,9.15
13.604039192199707,8.13,4.57,-2.75,9.72
13.606793403625488,7.88,5.16,-2.34,9.7
13.609541416168213,6.49,6.63,-1.87,9.46
13.612305164337158,5.28,8.75,-1.59,10.34
13.615875244140625,4.25,10.85,-1.31,11.72
13.617730140686035,2.75,12.11,-8.78,15.2
13.627753257751465,2.09,10.56,-27.98,29.97
13.637916088104248,3.09,3.36,-21.33,21.81
13.698444366455078,5.21,-16.46,20.56,26.84
13.700547218322754,3.09,-33.85,12.04,36.06
13.702818393707275,7.88,-21.83,-12.1,26.17
13.705629348754883,15.18,-6.01,-1.11,16.36
13.708402156829834,10.2,0.2,7.1,12.42
13.711140155792236,0.11,1.53,-1.7,2.28
13.713940143585205,-5.3,3.97,-4.42,7.96
13.716941356658936,-7.07,7.88,-0.85,10.62
13.72725224494934,-4.3,8.42,-4.08,10.29
13.736818313598633,2.05,4.03,-2.7,5.26
13.79880142211914,8.36,-1.41,1.21,8.56
13.80137014389038,9.74,-4.97,0.22,10.93
13.803267240524292,6.3,-5.37,-1.18,8.36
13.80597734451294,1.94,-3.46,0.34,3.98
13.808788299560547,-0.33,-1.75,1.12,2.1
13.811530113220215,-1.77,-0.59,0.75,2.01
13.814244270324707,-2.93,0.9,0.7,3.14
13.816967248916626,-2.97,1.33,-0.01,3.25
13.82654619216919,-1.8,0.58,0.47,1.94
13.836278200149536,-0.1,-0.32,0.66,0.74
13.846473217010498,1.62,-0.62,0.13,1.73
13.903538227081299,1.82,-0.16,0.54,1.9
13.905592203140259,1.16,0.3,0.74,1.4
13.907514095306396,0.48,0.59,0.37,0.84
13.910000324249268,-0.49,0.89,0.4,1.09
13.912826299667358,-1.05,0.47,0.56,1.27
13.916221141815186,-1.56,-0.34,0.97,1.86
13.918259143829346,-1.98,-0.85,0.91,2.33
13.935460090637207,-1.71,-0.85,0.21,1.92
13.937469244003296,-1.29,-0.6,0.41,1.48
13.945815086364746,-1.06,-0.61,0.75,1.43
14.00257420539856,-1.09,-0.69,0.9,1.57
14.004618167877197,-1.33,-0.19,0.48,1.42
14.00687313079834,-0.84,0.32,0.2,0.92
14.009559154510498,-0.81,0.62,0.38,1.08
14.012280225753784,-1.51,0.69,0.37,1.7
14.014867305755615,-1.54,0.84,0.31,1.78
14.01670217514038,-1.51,0.92,0.19,1.77
14.024853229522705,-1.69,0.6,0.47,1.85
14.035171270370483,-1.46,0.27,0.64,1.61
14.044901371002197,-1.12,0.1,0.6,1.27
14.10167932510376,-0.7,0.18,0.81,1.08
14.10435438156128,-0.05,0.34,1.03,1.08
14.106111288070679,-0.09,0.4,0.1,0.42
14.108747243881226,-0.38,0.08,-0.15,0.41
14.111563205718994,-0.41,-0.34,-0.48,0.71
14.114405155181885,-0.02,-0.86,-0.61,1.05
14.117202281951904,0.94,-1.53,-0.55,1.87
14.124200344085693,1.07,-2.17,-0.8,2.54
14.135200262069702,-0.1,-2.76,-0.6,2.82
14.144208192825317,-1.22,-3.18,-0.96,3.53
14.201910257339478,-2.35,-3.78,-0.26,4.45
14.204731225967407,-3.19,-5.23,0.96,6.2
14.206626415252686,-3.11,-7.51,2.36,8.46
14.219242095947266,-2.52,-9.95,1.99,10.45
14.221270084381104,-1.72,-11.78,1.87,12.05
14.22506332397461,-1.25,-11.87,2.22,12.14
14.2275972366333,-2.93,-10.04,2.66,10.79
14.230403423309326,-6.39,-8.27,2.24,10.68
14.233394145965576,-9.74,-8.12,2.64,12.95
14.243636131286621,-12.47,-8.33,3.64,15.43
14.305862426757812,-12.88,-8.12,3.71,15.67
14.307908296585083,-11.66,-7.26,4.06,14.32
14.309829235076904,-10.06,-6.29,3.56,12.38
14.313639163970947,-7.31,-6.2,1.38,9.68
14.316376209259033,-4.57,-6.68,-4.0,9.02
14.318371295928955,-1.65,-7.54,-4.98,9.18
14.336827278137207,3.34,-8.62,-2.77,9.65
14.338800191879272,6.25,-8.61,-2.46,10.91
14.341703414916992,6.36,-5.99,-4.27,9.72
14.344458103179932,6.53,-2.31,-5.54,8.86
14.405732154846191,6.18,0.17,-4.73,7.78
14.408267259597778,5.39,0.97,-3.83,6.68
14.410100221633911,3.4,0.75,-2.72,4.41
14.417543411254883,0.9,0.33,-0.88,1.3
14.419612407684326,-1.07,-0.2,0.46,1.18
14.422442197799683,-2.5,-0.54,0.87,2.7
14.425203323364258,-3.47,-0.34,1.47,3.78
14.427952289581299,-4.06,0.2,2.22,4.63
14.432162284851074,-4.29,0.55,2.92,5.21
14.442378282546997,-4.28,1.18,3.42,5.6
14.505844116210938,-4.38,2.16,3.58,6.05
14.508429288864136,-4.96,3.22,4.06,7.17
14.51036524772644,-5.52,4.11,4.48,8.21
14.513073205947876,-5.5,4.92,4.09,8.43
14.51649808883667,-4.79,5.55,3.39,8.07
14.51845932006836,-4.22,6.0,2.69,7.81
14.536042213439941,-4.09,6.25,2.19,7.78
14.538045406341553,-3.85,6.27,1.8,7.57
14.540817260742188,-3.43,6.33,1.63,7.38
14.543572425842285,-2.91,6.47,1.42,7.23
14.605171203613281,-2.45,6.54,1.04,7.06
14.60771131515503,-2.02,6.6,0.77,6.94
14.609562397003174,-1.88,6.85,0.61,7.12
14.612359285354614,-2.03,7.19,0.78,7.51
14.614826202392578,-2.03,7.47,1.31,7.85
14.616551399230957,-2.16,7.73,1.48,8.16
14.619667291641235,-2.4,7.78,1.52,8.28
14.622429370880127,-2.58,7.54,1.68,8.14
14.630866289138794,-2.45,7.12,1.26,7.63
14.64091420173645,-2.1,6.62,0.57,6.96
14.650755405426025,-1.49,6.21,0.69,6.42
14.710922241210938,-0.55,5.97,0.48,6.01
14.712983131408691,0.39,5.98,-0.15,5.99
14.714966297149658,1.18,6.16,-0.38,6.28
14.717937231063843,1.97,6.2,-0.4,6.51
14.720458269119263,2.67,6.1,-0.57,6.68
14.72318410873413,3.44,5.72,-0.43,6.68
14.725714206695557,4.07,5.22,-0.19,6.62
14.729966163635254,4.27,4.9,-0.36,6.5
14.740659236907959,4.07,4.82,-0.77,6.35
14.749935150146484,3.84,4.71,-0.74,6.12
14.809309244155884,3.54,4.56,-0.41,5.78
14.81136417388916,3.05,4.16,-3.75,6.37
14.81332540512085,4.46,3.13,-14.88,15.84
14.816801071166992,11.13,-1.44,-20.53,23.39
14.819077253341675,19.73,-18.46,7.63,28.07
14.836421251296997,11.38,-30.0,19.24,37.41
14.838479280471802,-3.12,-16.01,2.49,16.5
14.841204166412354,-5.94,-3.88,-6.57,9.66
14.843957424163818,-1.18,0.8,-1.12,1.81
14.849466323852539,3.01,3.83,-1.95,5.24
14.909497261047363,1.26,6.02,-5.08,7.97
14.91169023513794,-0.92,8.55,-2.8,9.04
14.914099216461182,-0.94,11.28,-1.66,11.44
14.91687536239624,0.34,9.91,-1.14,9.98
14.918970108032227,2.65,3.43,-0.04,4.33
14.935914278030396,4.82,-4.44,-0.29,6.55
14.937950134277344,6.07,-11.31,-0.97,12.87
14.940749168395996,6.81,-12.84,-1.6,14.62
14.94338321685791,5.54,-7.18,-0.96,9.11
14.948461294174194,2.38,-1.22,0.51,2.72
15.009129285812378,-0.29,1.82,1.7,2.5
15.011324405670166,-1.77,3.83,1.12,4.36
15.013268232345581,-2.08,4.65,-0.14,5.09
15.01674222946167,-0.28,3.13,-0.32,3.15
15.018731117248535,2.02,0.77,-0.12,2.16
15.02144718170166,3.62,-1.63,0.0,3.97
15.024187088012695,4.4,-3.39,-0.36,5.56
15.027849197387695,4.1,-3.93,-0.24,5.68
15.038309097290039,3.08,-3.23,-0.05,4.46
15.047798156738281,2.03,-1.9,-0.03,2.78
15.114382266998291,0.73,-0.55,0.02,0.91
15.116908073425293,-0.33,0.4,0.39,0.64
15.118940353393555,-0.91,0.87,0.6,1.39
15.121783256530762,-0.95,0.88,0.89,1.57
15.12453317642212,-0.54,0.74,1.14,1.46
15.127326250076294,0.24,0.6,1.05,1.23
15.130003213882446,0.56,0.9,1.0,1.45
15.133332252502441,-0.1,1.4,0.68,1.55
15.137168407440186,-0.8,1.72,0.44,1.94
15.147486209869385,-1.43,1.9,0.14,2.38
15.212743282318115,-2.25,1.95,-0.18,2.98
15.214755296707153,-3.35,1.88,-0.07,3.84
15.216675281524658,-3.82,1.68,0.14,4.17
15.220368385314941,-3.67,1.53,-0.13,3.97
15.223167419433594,-3.72,1.74,0.06,4.1
15.225951194763184,-2.59,1.84,0.84,3.28
15.228676319122314,-0.85,1.76,0.89,2.14
15.231456279754639,-0.63,1.56,1.27,2.1
15.236484289169312,-1.19,1.33,1.9,2.6
15.246665239334106,-2.5,1.11,1.79,3.26
15.312592267990112,-3.97,0.12,1.36,4.19
15.314691305160522,-5.15,-1.43,0.79,5.4
15.316643238067627,-4.77,-3.3,-0.36,5.81
15.318941116333008,-3.03,-5.35,-0.16,6.15
15.336194276809692,-2.55,-6.55,0.48,7.04
15.33824110031128,-3.9,-6.22,0.07,7.34
15.341041088104248,-5.26,-5.12,-1.33,7.45
15.343773365020752,-5.6,-4.42,-1.26,7.24
15.34645128250122,-5.07,-4.3,-1.1,6.73
15.349249362945557,-4.48,-4.75,-1.07,6.61
15.412131309509277,-2.92,-6.16,0.47,6.83
15.414758205413818,-1.65,-8.2,1.2,8.44
15.416737079620361,-2.08,-10.3,2.15,10.72
15.418656349182129,-2.77,-11.92,3.45,12.71
15.436258316040039,-3.53,-12.76,4.15,13.87
15.438299179077148,-4.7,-12.9,4.65,14.49
15.441133260726929,-8.05,-12.31,4.8,15.47
15.443957328796387,-11.62,-10.83,4.79,16.59
15.446688175201416,-13.52,-8.84,3.31,16.48
15.449404239654541,-14.96,-7.45,3.85,17.15
15.454877376556396,-11.27,-7.1,2.83,13.61
15.515872240066528,-7.53,-7.22,-1.58,10.55
15.518599271774292,-4.23,-7.7,-3.73,9.54
15.520439147949219,1.17,-9.05,-4.18,10.03
15.523394107818604,7.98,-11.45,-4.57,14.68
15.52615737915039,11.5,-10.44,-6.13,16.69
15.52888822555542,10.83,-5.02,-7.91,14.31
15.531739234924316,9.63,-0.67,-7.74,12.37
15.534496307373047,8.79,0.84,-6.26,10.82
15.54491138458252,6.93,1.02,-4.19,8.16
15.554305076599121,3.59,0.38,-2.56,4.42
15.61720323562622,0.27,-0.34,-1.42,1.48
15.619806289672852,-2.47,-0.49,-0.29,2.53
15.621730327606201,-5.09,-0.02,1.75,5.38
15.624569416046143,-7.22,0.68,3.99,8.27
15.627243280410767,-8.39,2.01,4.83,9.88
15.629947185516357,-8.72,3.7,4.83,10.63
15.633251190185547,-8.74,5.77,5.69,11.91
15.635515213012695,-8.78,7.59,6.0,13.06
15.644037246704102,-8.93,8.58,5.39,13.5
15.653837203979492,-8.78,9.05,5.5,13.75
15.716193199157715,-8.23,9.01,4.73,13.08
15.718239307403564,-7.37,8.43,3.58,11.75
15.720487117767334,-6.17,7.28,3.41,10.13
15.723273277282715,-4.61,6.4,3.07,8.46
15.726065158843994,-3.75,6.11,2.98,7.76
15.728837251663208,-3.21,6.07,3.53,7.72
15.731581211090088,-2.53,5.92,4.17,7.67
15.734219074249268,-2.0,5.91,4.1,7.46
15.742945194244385,-1.55,6.1,3.56,7.23
15.753023147583008,-1.27,6.33,3.36,7.27
15.815962314605713,-0.93,6.51,2.98,7.21
15.818489074707031,-0.5,6.67,2.13,7.01
15.8203763961792,-0.16,6.78,1.49,6.94
15.82306718826294,0.38,6.8,1.34,6.94
15.825635194778442,0.94,6.95,1.58,7.18
15.828384399414062,1.58,6.94,1.08,7.19
15.831168174743652,2.13,6.35,0.88,6.75
15.833796262741089,2.93,5.24,1.95,6.31
15.842665195465088,3.95,4.05,2.22,6.07
15.852408409118652,4.56,2.87,1.72,5.65
15.92143726348877,4.87,1.62,2.04,5.52
15.9240083694458,5.17,0.29,2.15,5.6
15.925882339477539,5.36,-1.09,1.1,5.57
15.928338289260864,6.23,-2.15,0.22,6.59
15.93105411529541,7.83,-1.54,0.74,8.01
15.933954238891602,9.32,0.85,0.31,9.36
15.936037302017212,9.65,4.29,-0.88,10.59
15.952665328979492,9.53,7.1,-2.61,12.16
15.954705238342285,6.06,7.76,-13.75,16.91
15.957249164581299,-2.83,-4.55,-27.5,28.01
16.019899368286133,-5.6,-45.28,-12.5,47.3
16.02245807647705,18.31,-42.11,23.81,51.72
16.02430820465088,17.79,-9.49,15.31,25.31
16.026989221572876,-0.42,3.79,-2.62,4.62
16.029751300811768,-6.37,15.79,-1.17,17.06
16.032288074493408,-6.98,22.35,-9.34,25.2
16.03412127494812,-3.15,14.75,-7.59,16.88
16.037038326263428,-0.81,6.74,3.69,7.72
16.040940284729004,2.15,-0.85,9.31,9.59
16.05110216140747,5.84,-10.78,2.93,12.6
16.119914293289185,8.9,-16.55,-5.45,19.56
16.121990203857422,10.28,-10.24,-5.42,15.48
16.123892307281494,7.91,-1.4,-1.36,8.14
16.12665319442749,3.33,3.39,0.34,4.76
16.129326343536377,-0.85,4.96,0.46,5.05
16.132071256637573,-2.94,4.35,0.94,5.33
16.1337571144104,-2.94,2.48,1.0,3.97
16.136903285980225,-1.12,0.42,0.88,1.48
16.140263080596924,1.64,-1.81,1.31,2.77
16.15021324157715,3.05,-2.94,1.69,4.56
16.2188663482666,2.76,-2.81,0.9,4.04
16.221083164215088,2.44,-1.75,-0.29,3.01
16.222984313964844,2.12,-0.16,-0.01,2.12
16.225693225860596,1.91,0.65,-0.14,2.02
16.228456258773804,1.73,0.99,-0.96,2.21
16.231330394744873,1.33,1.35,-1.2,2.24
16.233952283859253,0.74,1.2,-0.8,1.62
16.23586416244507,-0.31,0.57,-0.39,0.75
16.252405166625977,-1.23,-0.09,-0.49,1.32
16.25437021255493,-1.76,-0.34,-0.46,1.85
16.259449243545532,-2.19,-0.14,-0.52,2.25
16.323423385620117,-2.7,0.04,-0.63,2.77
16.326236248016357,-3.2,0.08,-0.57,3.25
16.328105211257935,-3.08,0.23,-0.68,3.16
16.33179521560669,-2.56,0.56,-0.47,2.66
16.33444309234619,-2.02,0.81,-0.29,2.19
16.336502075195312,-1.98,1.19,0.14,2.31
16.353093147277832,-1.82,1.6,0.81,2.55
16.355112075805664,-0.98,1.55,0.88,2.03
16.358025074005127,-0.31,0.99,0.95,1.4
16.360727310180664,0.02,0.33,1.51,1.54
16.422799110412598,0.02,0.06,1.22,1.22
16.425251245498657,-0.52,0.06,0.97,1.1
16.42699432373047,-0.89,0.01,1.02,1.35
16.429574251174927,-0.67,-0.04,0.45,0.8
16.432334423065186,-0.27,-0.14,0.05,0.3
16.43414831161499,0.32,-0.42,0.1,0.53
16.437434196472168,0.91,-0.6,0.06,1.09
16.440182209014893,1.19,-0.55,0.37,1.36
16.44810914993286,1.05,-0.66,0.64,1.39
16.458051204681396,0.91,-1.0,0.35,1.39
16.52250623703003,0.83,-1.16,0.54,1.52
16.525013208389282,0.25,-1.26,0.85,1.54
16.52692222595215,-0.99,-1.36,0.74,1.83
16.529654264450073,-2.46,-1.22,0.56,2.8
16.53244638442993,-3.96,-1.1,0.34,4.12
16.534266233444214,-5.18,-1.31,0.33,5.35
16.537384271621704,-5.94,-1.64,0.46,6.17
16.54008722305298,-6.3,-1.93,0.82,6.63
16.5473952293396,-6.02,-2.12,1.07,6.47
16.557870388031006,-5.27,-2.06,0.01,5.65
16.621686220169067,-5.31,-1.83,0.82,5.67
16.624263286590576,-4.9,-2.92,3.45,6.66
16.626197338104248,-4.84,-3.84,3.57,7.13
16.62887716293335,-4.99,-4.28,3.07,7.25
16.631675243377686,-5.3,-5.62,2.02,7.98
16.634472370147705,-4.83,-8.53,0.73,9.82
16.636556148529053,-1.97,-12.84,0.82,13.01
16.65302038192749,-2.0,-17.06,3.73,17.57
16.655097246170044,-4.54,-17.59,7.07,19.49
16.658032417297363,-5.25,-12.54,6.05,14.88
16.727681159973145,-6.66,-6.61,2.64,9.74
16.730287075042725,-6.89,-3.79,2.72,8.32
16.732145309448242,-4.4,-2.75,1.92,5.53
16.734063148498535,-1.22,-2.05,-0.51,2.43
16.737966299057007,0.46,-1.41,-2.25,2.69
16.74073839187622,1.16,-0.79,-2.63,2.98
16.743523120880127,1.57,-0.25,-2.36,2.84
16.746307373046875,1.62,0.61,-1.02,2.0
16.749176263809204,1.52,1.96,0.28,2.49
16.756052255630493,0.56,3.61,0.81,3.74
16.825997352600098,-0.55,4.82,1.3,5.02
16.828606128692627,-1.43,5.43,1.19,5.73
16.83045530319214,-2.47,5.9,1.1,6.49
16.833794116973877,-3.34,6.24,1.52,7.23
16.83610725402832,-4.18,6.48,1.86,7.93
16.838744163513184,-5.06,6.86,1.85,8.72
16.84152317047119,-5.78,7.4,1.82,9.56
16.844280242919922,-6.24,7.72,2.04,10.13
16.847071170806885,-6.11,7.53,2.34,9.97
16.85577917098999,-5.44,6.75,2.49,9.01
16.925222396850586,-4.9,5.75,2.35,7.91
16.927760124206543,-4.96,4.75,2.71,7.38
16.929691314697266,-3.94,3.81,3.68,6.6
16.93242311477661,-2.11,2.93,3.73,5.19
16.93428134918213,-0.87,1.94,2.66,3.4
16.937788248062134,-0.2,0.88,1.73,1.95
16.940556287765503,0.42,0.0,1.56,1.61
16.943303108215332,1.31,-0.6,1.85,2.34
16.946052074432373,2.05,-1.0,1.52,2.74
16.95502233505249,2.26,-1.33,0.94,2.78
17.02417230606079,2.33,-1.51,0.88,2.91
17.026190280914307,2.54,-1.52,1.26,3.21
17.028420209884644,2.59,-1.42,1.15,3.16
17.031163215637207,2.16,-1.03,0.82,2.52
17.034391403198242,1.83,-0.35,0.64,1.97
17.036328315734863,1.39,-0.02,0.23,1.4
17.053665161132812,0.9,-0.35,0.09,0.96
17.05569839477539,0.94,-1.27,0.64,1.7
17.058207273483276,1.17,-2.4,1.25,2.94
17.06099820137024,1.18,-3.68,1.99,4.34
17.063910245895386,1.2,-4.94,2.56,5.69
17.128241300582886,1.32,-5.66,2.88,6.48
17.1304612159729,0.67,-6.1,3.07,6.86
17.132842302322388,-0.23,-6.21,3.29,7.03
17.134753227233887,-0.47,-5.27,5.07,7.32
17.137871265411377,1.29,-2.94,7.99,8.61
17.14064621925354,3.3,0.5,6.74,7.52
17.143402099609375,1.9,2.83,2.5,4.22
17.146225214004517,0.79,1.57,1.1,2.07
17.15337038040161,1.41,-1.4,2.28,3.02
17.163485288619995,1.9,-3.67,3.72,5.56
17.227115154266357,0.15,-4.93,0.51,4.95
17.2296462059021,-10.05,-6.85,-3.63,12.69
17.231624126434326,-19.66,-14.46,1.76,24.46
17.233556270599365,-6.02,-22.56,13.13,26.78
17.23704433441162,10.16,-15.26,13.75,22.91
17.239883422851562,11.99,-1.23,5.92,13.42
17.242603302001953,7.26,8.75,4.57,12.25
17.24526834487915,3.12,13.89,3.28,14.6
17.253201246261597,3.5,14.68,-6.17,16.3
17.262624263763428,7.24,10.63,-15.3,19.98
17.32746410369873,12.35,1.67,-14.94,19.45
17.330019235610962,15.07,-5.92,-5.24,17.01
17.331990242004395,12.8,-7.72,0.41,14.95
17.335387229919434,6.65,-4.32,0.75,7.96
17.337419271469116,0.73,-0.33,2.81,2.92
17.370004177093506,-2.85,0.14,5.51,6.2
17.37220525741577,-4.46,-0.87,5.56,7.18
17.375120162963867,-4.21,-0.65,3.07,5.25
17.37785029411316,-1.62,-0.57,0.65,1.83
17.380587100982666,2.01,-1.23,-0.82,2.49
17.44269824028015,4.62,-1.48,-1.67,5.13
17.444793224334717,4.43,-0.52,-2.44,5.08
17.44704818725586,2.17,0.65,-2.49,3.36
17.44986128807068,0.27,0.95,-1.55,1.83
17.451738357543945,-1.07,0.84,-0.7,1.52
17.45462727546692,-1.84,0.45,-0.37,1.93
17.45738935470581,-2.15,-0.45,0.38,2.22
17.460086345672607,-2.34,-0.97,0.4,2.56
17.46286916732788,-2.24,-1.14,-0.12,2.51
17.465615272521973,-1.58,-0.55,-0.91,1.9
17.53057622909546,0.07,0.26,-1.29,1.31
17.532686233520508,1.2,0.66,-0.47,1.44
17.534565210342407,1.05,0.81,0.17,1.33
17.537789344787598,0.8,0.78,-0.88,1.42
17.540456295013428,0.93,0.16,-0.9,1.3
17.543153285980225,0.48,-0.39,0.25,0.66
17.54581642150879,-1.21,-0.39,0.42,1.33
17.54847025871277,-3.39,-0.21,0.01,3.39
17.551152229309082,-4.64,-0.28,-0.18,4.65
17.560835361480713,-4.53,-0.3,0.29,4.54
17.63108539581299,-3.14,-0.21,0.46,3.18
17.633318424224854,-2.22,-0.05,0.22,2.23
17.635257244110107,-1.96,0.35,0.2,2.0
17.638404369354248,-1.64,0.9,0.48,1.93
17.64111828804016,-1.6,1.34,0.72,2.2
17.643739223480225,-2.2,1.1,0.65,2.54
17.646421194076538,-2.62,0.04,1.02,2.81
17.649027347564697,-2.11,-1.04,1.19,2.63
17.651570320129395,-0.85,-1.5,1.73,2.44
17.660014152526855,0.09,-1.45,0.77,1.64
17.729557275772095,0.19,-1.18,-0.12,1.2
17.731773376464844,-0.71,-0.63,-0.31,0.99
17.73370122909546,-2.31,-0.8,-0.96,2.62
17.7361102104187,-4.15,-1.38,-1.1,4.5
17.753255367279053,-5.36,-1.66,-0.99,5.69
17.755298137664795,-5.59,-1.54,-1.17,5.91
17.75815725326538,-3.92,-1.61,-1.28,4.42
17.760874271392822,-0.66,-1.76,-0.81,2.04
17.76357126235962,1.71,-1.81,-0.39,2.52
17.766306400299072,2.45,-2.39,-1.14,3.6
17.828795194625854,2.52,-3.46,-3.09,5.27
17.831382274627686,0.3,-5.46,0.18,5.47
17.833341121673584,-0.54,-8.64,2.5,9.01
17.83525323867798,-3.75,-10.39,3.95,11.73
17.852789402008057,-6.98,-11.76,4.18,14.3
17.85478925704956,-7.57,-12.23,7.05,16.01
17.85844326019287,-6.9,-11.1,8.41,15.54
17.86125421524048,-6.33,-9.71,8.72,14.5
17.864044189453125,-5.63,-8.8,8.11,13.22
17.86667013168335,-5.45,-8.72,5.83,11.82
17.868601322174072,-6.12,-9.08,3.51,11.49
17.932600259780884,-7.5,-9.25,4.34,12.67
17.935253143310547,-6.55,-9.21,4.21,12.06
17.93732213973999,-3.03,-8.93,-1.26,9.51
17.940160274505615,-0.92,-8.71,-4.26,9.73
17.94293737411499,1.92,-8.7,-2.42,9.23
17.945679187774658,6.28,-8.34,-1.12,10.49
17.948566198349,9.07,-6.68,-2.97,11.64
17.951411247253418,8.95,-4.01,-3.39,10.37
17.95789909362793,7.82,-2.09,-1.99,8.33
17.969255208969116,6.84,-1.4,-1.85,7.22
18.032655239105225,5.45,-1.05,-1.73,5.81
18.03535032272339,3.5,-0.76,-0.7,3.64
18.037368297576904,1.83,-0.59,0.41,1.96
18.040232181549072,0.7,-0.38,1.58,1.76
18.04300022125244,-0.46,0.48,2.38,2.47
18.04566717147827,-1.62,1.77,2.77,3.66
18.048474311828613,-2.77,2.89,3.32,5.2
18.05148935317993,-3.24,3.56,3.77,6.11
18.057055234909058,-3.07,3.89,3.69,6.17
18.069435119628906,-3.01,4.41,3.69,6.49
18.132115364074707,-2.73,5.03,3.95,6.95
18.13438630104065,-2.35,5.6,4.0,7.27
18.136436223983765,-2.02,6.56,3.87,7.87
18.14012908935547,-1.96,7.4,3.43,8.38
18.142919301986694,-2.12,7.9,3.53,8.9
18.14567232131958,-2.35,8.28,4.16,9.55
18.148349285125732,-1.98,8.47,4.16,9.64
18.15133810043335,-1.91,8.78,3.36,9.59
18.156411170959473,-2.48,8.79,3.03,9.62
18.169307231903076,-3.0,8.57,3.94,9.89
18.23132824897766,-3.04,8.53,4.5,10.11
18.234413146972656,-3.01,8.7,4.28,10.15
18.236448287963867,-2.83,8.95,3.95,10.18
18.239243268966675,-2.6,9.36,4.15,10.56
18.241995334625244,-2.13,9.56,4.94,10.96
18.2447612285614,-1.21,9.57,5.07,10.89
18.2474262714386,-0.09,9.44,3.8,10.17
18.2500901222229,1.25,9.14,2.12,9.46
18.255725383758545,2.63,8.61,0.47,9.01
18.265929222106934,4.38,7.82,0.15,8.96
18.335548400878906,5.74,7.12,-0.8,9.18
18.337712287902832,6.13,6.42,-2.02,9.1
18.33961319923401,6.34,6.09,-2.15,9.05
18.342090129852295,6.3,6.61,-1.65,9.27
18.344948291778564,5.97,7.22,-1.11,9.43
18.347602367401123,5.61,6.76,-3.76,9.55
18.35041332244873,4.85,5.08,-23.94,24.94
18.352437257766724,8.72,-2.3,-36.38,37.48
18.35540533065796,23.15,-33.32,23.32,46.79
18.365284204483032,10.81,-43.79,39.68,60.07
18.437411308288574,-7.54,-15.95,-8.67,19.65
18.43962025642395,-4.77,-1.42,-22.41,22.95
18.441890239715576,3.61,6.05,1.05,7.12
18.444714307785034,3.66,8.22,8.23,12.19
18.447501182556152,1.5,7.52,-2.57,8.08
18.45011329650879,-0.4,11.79,-4.49,12.62
18.45195722579956,-0.13,14.52,-0.65,14.53
18.45502233505249,4.15,8.46,-3.56,10.07
18.457788228988647,7.62,1.73,-1.91,8.04
18.464292287826538,9.2,-3.64,-0.07,9.89
18.53442907333374,7.61,-6.94,-1.96,10.48
18.536465167999268,5.17,-7.07,-0.78,8.79
18.538785219192505,2.5,-5.33,1.75,6.14
18.54164218902588,-0.21,-2.83,1.35,3.14
18.54446029663086,-1.67,-1.13,0.53,2.08
18.5472092628479,-1.55,0.22,-0.21,1.57
18.549901247024536,-0.6,1.38,-0.67,1.64
18.55168914794922,1.33,1.6,-0.46,2.13
18.555179119110107,2.81,1.25,-0.57,3.12
18.563534259796143,4.19,0.08,-1.2,4.35
18.634411334991455,4.83,-0.76,-1.19,5.03
18.637023210525513,4.06,-0.37,-0.83,4.16
18.638883113861084,2.84,0.29,-0.6,2.91
18.641534328460693,1.98,0.66,-0.21,2.09
18.644277095794678,1.15,0.75,0.53,1.47
18.647014141082764,0.54,0.55,0.93,1.2
18.64977741241455,-0.13,0.5,1.05,1.17
18.65254521369934,-0.38,0.31,1.02,1.13
18.654383182525635,-0.5,0.13,0.53,0.74
18.669729232788086,-0.8,0.2,0.37,0.9
18.672998189926147,-0.95,0.93,0.07,1.33
18.739631175994873,-1.4,1.99,-0.2,2.44
18.742208242416382,-2.15,2.68,-0.34,3.45
18.74405336380005,-2.26,2.89,-0.4,3.69
18.74673318862915,-2.15,2.77,-0.42,3.53
18.749548196792603,-2.71,2.42,0.32,3.64
18.752206325531006,-3.28,1.81,1.97,4.23
18.75429916381836,-2.9,1.15,2.96,4.3
18.771029233932495,-1.76,0.98,2.27,3.03
18.77304220199585,-1.32,1.08,1.76,2.45
18.775999307632446,-0.18,1.03,1.69,1.98
18.83954930305481,0.42,0.76,1.51,1.74
18.842166423797607,-1.55,-0.11,2.64,3.06
18.843987226486206,-3.17,-1.66,2.01,4.1
18.84668207168579,-4.5,-3.4,0.89,5.7
18.84943127632141,-5.56,-4.89,1.51,7.55
18.852299213409424,-5.8,-5.08,1.16,7.79
18.854490280151367,-6.25,-3.63,0.54,7.24
18.87084436416626,-6.65,-2.11,-1.56,7.14
18.872902393341064,-5.82,-1.5,-4.01,7.22
18.875749111175537,-3.63,-2.3,-3.13,5.31
18.938781261444092,-0.59,-4.06,-2.17,4.64
18.941460132598877,1.16,-5.87,-0.73,6.02
18.943286418914795,1.33,-7.39,0.73,7.54
18.945959091186523,-1.06,-8.34,0.96,8.46
18.94872522354126,-4.84,-8.9,2.16,10.35
18.951876163482666,-8.35,-9.23,2.92,12.78
18.953818321228027,-10.85,-9.34,4.28,14.94
18.971423149108887,-11.59,-9.31,5.07,15.7
18.973450183868408,-11.63,-8.69,6.07,15.73
18.976394176483154,-11.44,-7.39,6.45,15.06
19.0386962890625,-11.28,-6.38,5.5,14.07
19.041271209716797,-10.46,-6.98,4.06,13.21
19.043107271194458,-6.68,-9.26,-0.24,11.42
19.045798301696777,-2.27,-11.52,-2.51,12.0
19.048514366149902,2.37,-12.91,-2.51,13.36
19.051674365997314,6.86,-13.1,-2.95,15.07
19.0540132522583,9.13,-10.41,-4.35,14.51
19.070897102355957,9.05,-4.98,-6.64,12.27
19.072954177856445,7.65,-0.57,-7.04,10.41
19.075841426849365,6.07,1.48,-5.48,8.31
19.140023231506348,4.69,1.8,-3.74,6.26
19.142580270767212,2.71,0.98,-2.15,3.59
19.144418239593506,0.23,0.15,-1.11,1.14
19.147085189819336,-2.14,-0.46,-0.21,2.19
19.149763107299805,-4.05,-0.51,1.05,4.21
19.15243625640869,-5.85,0.06,2.01,6.18
19.154460191726685,-7.39,1.01,3.02,8.04
19.17079210281372,-7.68,1.99,3.95,8.86
19.172699213027954,-7.27,3.32,3.95,8.91
19.175345420837402,-7.47,5.16,3.98,9.91
19.239373207092285,-7.72,6.66,4.12,10.99
19.241926193237305,-7.55,7.68,3.82,11.42
19.243770122528076,-7.1,8.15,3.03,11.22
19.24647808074951,-6.79,8.13,2.33,10.84
19.249242305755615,-6.16,7.77,2.32,10.18
19.251965284347534,-5.31,7.23,2.48,9.3
19.253855228424072,-4.34,6.83,2.69,8.52
19.270480155944824,-3.49,6.89,2.35,8.07
19.272441387176514,-2.84,7.4,1.86,8.14
19.275124073028564,-2.07,7.95,2.11,8.48
19.33907413482666,-1.15,8.55,1.91,8.83
19.34162712097168,-0.48,9.19,1.51,9.32
19.343453407287598,-0.22,9.66,1.39,9.76
19.34619140625,0.17,9.78,1.19,9.85
19.348963260650635,0.52,9.4,0.74,9.44
19.351962089538574,0.93,8.85,0.16,8.9
19.353859424591064,1.74,8.11,-0.31,8.3
19.37068819999695,2.68,7.48,-0.7,7.97
19.372695207595825,4.01,7.02,-0.87,8.13
19.375385284423828,5.6,6.59,-1.57,8.78
19.43836212158203,6.35,6.58,-2.52,9.48
19.440961360931396,6.6,7.23,-2.65,10.14
19.442787170410156,7.31,8.08,-3.1,11.32
19.44542622566223,8.19,8.91,-2.38,12.33
19.447997093200684,8.25,9.9,-3.72,13.41
19.450558185577393,6.22,9.06,-22.17,24.74
19.45240020751953,6.7,1.17,-30.84,31.58
19.4552903175354,12.91,-30.89,25.81,42.27
19.45787024497986,6.42,-54.06,24.09,59.53
19.467429161071777,-0.3,-23.97,-17.9,29.91
19.47737407684326,5.61,-2.69,-7.47,9.72
19.544496297836304,5.1,4.86,7.24,10.1
19.547093391418457,-0.04,7.81,-1.62,7.97
19.54905939102173,-4.42,12.89,-3.68,14.11
19.552431106567383,-7.49,20.24,-2.21,21.69
19.554428100585938,-3.31,16.65,-5.27,17.77
19.570736408233643,2.67,7.12,-4.13,8.65
19.57271432876587,7.69,0.05,-0.15,7.69
19.576454162597656,10.8,-6.35,-0.33,12.53
19.579228401184082,9.44,-10.59,-1.7,14.28
19.5819673538208,6.41,-10.18,-0.38,12.03
19.647173404693604,2.94,-5.96,2.25,7.01
19.649359226226807,0.26,-1.87,2.01,2.75
19.6519513130188,-0.74,1.57,1.15,2.08
19.65413236618042,0.28,3.02,1.68,3.46
19.67139434814453,0.83,3.27,0.93,3.49
19.673363208770752,1.09,3.3,0.75,3.55
19.676140308380127,1.99,2.17,0.9,3.07
19.678903102874756,2.35,0.58,0.77,2.54
19.6815242767334,2.02,-0.65,0.26,2.13
19.68398928642273,1.74,-1.63,0.45,2.42
19.747925281524658,0.92,-1.46,0.15,1.73
19.750516414642334,-0.03,-0.9,0.08,0.9
19.752422332763672,-1.18,-0.3,0.54,1.33
19.755718231201172,-2.05,0.67,0.15,2.16
19.758479118347168,-2.08,1.35,-0.13,2.48
19.761215209960938,-1.76,1.76,-0.03,2.48
19.763765335083008,-1.27,1.8,0.01,2.2
19.766552209854126,-0.99,1.64,0.06,1.91
19.769148349761963,-0.79,1.29,0.29,1.54
19.775562286376953,-0.57,1.02,0.03,1.16
19.85057830810547,-1.25,0.79,0.38,1.52
19.852649211883545,-1.85,0.2,1.13,2.17
19.854562282562256,-2.63,-0.13,1.08,2.84
19.858315229415894,-3.49,0.07,1.25,3.7
19.861098289489746,-3.6,0.29,1.81,4.03
19.863853216171265,-3.35,0.31,2.15,3.99
19.866652250289917,-3.48,-0.01,1.85,3.94
19.86927819252014,-3.6,-0.46,1.45,3.9
19.871283292770386,-3.33,-0.8,1.33,3.67
19.888431072235107,-3.19,-0.94,1.07,3.49
19.95230221748352,-2.58,-1.0,0.51,2.81
19.954841136932373,-1.82,-0.89,-0.07,2.02
19.956745147705078,-1.45,-1.19,-0.89,2.07
19.959330081939697,-1.4,-1.69,-1.61,2.72
19.96212911605835,-1.71,-2.03,-1.72,3.16
19.96488618850708,-1.2,-2.49,-0.92,2.91
19.96744441986084,-0.05,-3.1,0.08,3.1
19.969250202178955,0.05,-3.84,1.31,4.05
19.972228288650513,-0.06,-4.46,1.44,4.68
19.97501516342163,-0.37,-4.64,0.85,4.73
20.045836210250854,-0.79,-4.89,1.37,5.13
20.04838228225708,-1.86,-5.9,1.38,6.33
20.050231218338013,-3.86,-7.45,2.47,8.74
20.053131103515625,-6.56,-8.65,2.68,11.18
20.055246353149414,-9.58,-9.63,3.58,14.04
20.071089267730713,-11.1,-10.14,4.65,15.73
20.073150157928467,-10.83,-9.83,4.2,15.21
20.075873374938965,-8.44,-9.12,3.38,12.87
20.078543186187744,-7.13,-8.23,3.08,11.31
20.081294298171997,-7.76,-7.25,2.99,11.03
20.14596128463745,-9.22,-6.77,3.09,11.84
20.14818239212036,-7.48,-7.45,1.69,10.69
20.150545120239258,-2.05,-8.22,-3.4,9.12
20.153359413146973,1.45,-8.81,-4.62,10.05
20.15543842315674,5.48,-10.14,-3.76,12.12
20.171330213546753,10.0,-10.59,-3.56,14.99
20.173384189605713,11.53,-6.89,-5.04,14.34
20.176039218902588,9.76,-1.56,-5.75,11.43
20.17879629135132,7.71,0.79,-4.9,9.16
20.181564331054688,6.34,0.73,-3.83,7.44
20.246411323547363,4.51,0.2,-2.87,5.34
20.24850034713745,2.24,-0.48,-1.95,3.0
20.250786304473877,-0.47,-1.21,-0.48,1.38
20.253600120544434,-2.97,-1.56,0.82,3.45
20.255695343017578,-5.15,-1.25,2.25,5.75
20.270809173583984,-6.6,-0.68,3.28,7.4
20.272780418395996,-7.11,0.78,3.58,7.99
20.276479244232178,-7.02,2.68,3.65,8.35
20.27924919128418,-6.86,4.31,3.68,8.89
20.28201723098755,-7.11,5.98,3.68,9.99
20.28478717803955,-7.51,7.49,3.62,11.2
20.34931230545044,-7.66,8.55,3.42,11.97
20.35221028327942,-7.25,9.02,2.85,11.91
20.354141235351562,-6.66,8.72,2.36,11.22
20.357876300811768,-6.09,7.8,2.77,10.27
20.36067008972168,-5.67,7.13,3.25,9.67
20.363442420959473,-5.41,7.08,3.0,9.4
20.366267204284668,-5.03,7.25,2.64,9.21
20.369324207305908,-4.48,7.63,1.92,9.05
20.371345281600952,-4.3,8.13,1.36,9.29
20.386784076690674,-3.57,8.56,2.21,9.53
20.45083236694336,-2.25,8.92,1.81,9.37
20.453408241271973,-0.94,9.45,0.52,9.51
20.45533037185669,0.52,9.82,0.3,9.83
20.45803427696228,1.97,9.22,0.09,9.42
20.460591316223145,2.5,8.19,-0.32,8.56
20.463297367095947,2.3,7.5,-0.2,7.84
20.46613311767578,2.07,6.83,0.27,7.14
20.46919536590576,2.22,6.09,0.02,6.48
20.471062183380127,3.33,5.67,-0.62,6.6
20.488311290740967,5.61,5.65,-1.21,8.05
20.552587270736694,7.71,6.45,-1.49,10.16
20.55518913269043,8.86,8.42,-1.94,12.37
20.557091236114502,9.37,11.19,-2.6,14.82
20.559847354888916,9.68,12.23,-14.85,21.53
20.56250023841858,8.63,6.12,-39.5,40.89
20.56503438949585,13.37,-21.77,8.63,26.96
20.5677752494812,7.21,-59.88,40.27,72.52
20.569637298583984,-4.36,-34.45,-12.16,36.79
20.572578191757202,1.21,-5.17,-16.33,17.17
20.579691410064697,5.24,6.23,5.11,9.61
20.646510124206543,2.66,10.44,4.66,11.73
20.64912724494934,-2.91,14.33,-0.29,14.62
20.65101718902588,-9.35,20.89,-3.86,23.21
20.65402317047119,-8.04,16.53,-5.07,19.06
20.656814098358154,0.28,6.2,-4.77,7.82
20.659525394439697,7.78,-1.67,-1.12,8.03
20.662291288375854,13.78,-9.04,-0.39,16.48
20.665054321289062,14.41,-13.38,-2.49,19.82
20.669188261032104,9.91,-10.61,-1.77,14.62
20.67946219444275,4.29,-4.25,0.69,6.07
20.750185251235962,0.23,-0.24,1.5,1.53
20.752782344818115,-1.82,1.44,0.48,2.36
20.754937171936035,-3.1,2.78,0.73,4.22
20.757517337799072,-3.1,3.68,0.99,4.91
20.76014518737793,-0.29,3.03,0.46,3.07
20.76289415359497,2.48,2.0,0.37,3.2
20.765698194503784,4.05,0.69,-0.13,4.11
20.768339157104492,4.67,-0.76,-0.52,4.75
20.77021837234497,3.05,-1.02,-1.16,3.41
20.778314113616943,0.92,-0.67,-0.79,1.38
20.849975109100342,-0.8,-0.31,-0.45,0.96
20.85221219062805,-2.23,0.1,-0.58,2.3
20.85416841506958,-2.74,0.35,-0.13,2.76
20.857905387878418,-2.82,1.1,0.21,3.03
20.860573291778564,-2.5,1.83,0.63,3.16
20.86331820487976,-1.92,2.37,0.37,3.07
20.866111278533936,-1.64,2.41,0.2,2.92
20.86946439743042,-0.98,1.79,0.76,2.17
20.87163734436035,-0.75,1.34,0.92,1.79
20.87765407562256,-1.55,1.15,1.45,2.41
20.948910236358643,-1.95,1.01,1.93,2.92
20.952340126037598,-2.2,0.81,2.11,3.15
20.954315185546875,-2.62,0.65,2.27,3.52
20.95691227912903,-2.38,0.65,1.89,3.1
20.95944309234619,-1.74,0.56,1.33,2.26
20.962236404418945,-1.88,0.34,0.69,2.03
20.96501111984253,-2.31,-0.01,0.12,2.31
20.967637300491333,-2.78,-0.39,0.25,2.81
20.970012187957764,-3.52,-0.93,0.96,3.76
20.977060317993164,-4.13,-1.6,0.95,4.52
21.048973083496094,-3.92,-2.29,1.28,4.71
21.05112934112549,-3.8,-2.38,1.22,4.64
21.052959203720093,-4.75,-2.21,0.37,5.25
21.05615234375,-5.19,-2.31,-1.73,5.93
21.058900356292725,-4.21,-2.23,-1.51,4.99
21.061594247817993,-1.79,-2.18,-1.89,3.39
21.064330101013184,0.25,-2.2,-2.45,3.3
21.067094326019287,1.48,-2.36,-1.01,2.96
21.06952428817749,2.05,-2.73,0.31,3.42
21.076433181762695,1.49,-3.3,0.58,3.66
21.087706089019775,0.09,-4.1,1.17,4.26
21.15243434906006,-0.87,-5.08,1.2,5.29
21.154966354370117,-1.05,-5.97,2.13,6.42
21.156841278076172,-1.74,-7.05,3.32,7.98
21.15959930419922,-3.87,-8.21,4.56,10.15
21.162400245666504,-7.17,-8.55,3.8,11.78
21.165186405181885,-9.91,-8.94,3.98,13.92
21.167922258377075,-9.41,-9.01,4.39,13.74
21.169724225997925,-7.78,-8.36,3.11,11.83
21.17567014694214,-7.03,-7.96,1.78,10.76
21.18572235107422,-6.67,-7.48,2.69,10.37
21.252252101898193,-6.52,-6.89,2.86,9.9
21.25431227684021,-7.81,-7.03,1.33,10.59
21.256246089935303,-5.67,-7.57,-2.33,9.74
21.25898027420044,-1.7,-7.37,-2.0,7.82
21.261739253997803,2.92,-7.62,-1.15,8.24
21.26451325416565,8.62,-8.66,-2.73,12.52
21.267313241958618,12.35,-7.82,-4.5,15.29
21.269965171813965,11.75,-3.97,-5.54,13.58
21.275034427642822,9.62,-1.03,-4.52,10.67
21.28961420059204,7.46,-0.37,-3.92,8.43
21.353264331817627,5.05,-0.5,-4.15,6.55
21.355735301971436,2.66,-0.47,-3.73,4.6
21.357645273208618,0.58,-1.26,-2.44,2.8
21.3603732585907,-1.59,-1.48,-1.01,2.39
21.363147258758545,-3.65,-1.62,0.69,4.05
21.36591339111328,-5.19,-1.52,2.51,5.96
21.36863613128662,-5.71,-0.82,3.93,6.98
21.370497226715088,-5.45,0.74,4.67,7.21
21.374829292297363,-5.21,2.9,3.99,7.17
21.384267330169678,-5.87,4.44,3.43,8.12
21.451581239700317,-6.81,5.83,4.07,9.84
21.453622341156006,-7.7,6.56,4.14,10.92
21.455525398254395,-8.04,6.22,3.84,10.86
21.4582302570343,-7.8,5.7,3.88,10.41
21.460986137390137,-7.41,5.21,3.52,9.71
21.463754177093506,-6.95,4.94,3.47,9.2
21.46661138534546,-6.43,4.89,3.34,8.74
21.469694137573242,-5.89,5.01,3.6,8.52
21.473594188690186,-5.25,5.33,3.82,8.4
21.48824119567871,-4.36,5.76,2.83,7.75
21.555167198181152,-3.65,6.36,1.93,7.58
21.557724237442017,-3.16,6.78,2.13,7.77
21.559622287750244,-2.48,7.22,2.25,7.95
21.56233024597168,-1.79,7.68,1.78,8.08
21.565081119537354,-1.2,7.96,1.32,8.15
21.567838191986084,-0.57,7.88,0.48,7.91
21.570573329925537,-0.23,7.55,-0.37,7.56
21.572554111480713,0.06,7.18,-0.2,7.18
21.589099407196045,0.48,6.75,-0.19,6.76
21.590993404388428,0.77,6.23,-0.19,6.28
21.655545234680176,1.01,5.43,0.22,5.52
21.65823221206665,1.7,4.29,1.56,4.87
21.660064220428467,2.81,2.95,1.92,4.5
21.66285729408264,3.3,1.65,1.75,4.08
21.665611267089844,3.45,0.43,2.12,4.07
21.668265342712402,3.4,-0.7,3.08,4.64
21.670091152191162,2.9,-1.28,3.54,4.75
21.672941207885742,3.13,-1.26,3.44,4.81
21.67567229270935,4.7,-0.32,2.73,5.44
21.68217134475708,6.55,1.06,1.45,6.79
21.754810333251953,7.85,2.77,0.92,8.37
21.756836414337158,8.83,4.59,0.71,9.97
21.759202241897583,6.85,3.79,-9.81,12.55
21.76204228401184,1.09,-10.18,-25.0,27.01
21.764739274978638,5.46,-46.73,-7.73,47.67
21.76753330230713,21.89,-40.3,31.75,55.77
21.770196199417114,2.38,-6.8,10.79,12.97
21.772395133972168,-9.48,5.02,-8.01,13.38
21.789087295532227,-9.13,16.72,-13.37,23.27
21.79116916656494,-3.46,25.72,-8.33,27.25
21.85591411590576,3.99,18.21,4.53,19.18
21.85849142074585,5.01,7.56,6.75,11.3
21.86033535003662,3.64,-0.17,-0.46,3.67
21.86301326751709,5.46,-9.66,-4.79,12.08
21.865776300430298,10.05,-16.65,-1.76,19.52
21.86855125427246,10.18,-12.57,2.01,16.29
21.870416164398193,4.1,-3.16,0.2,5.18
21.873252391815186,-0.78,2.37,0.52,2.54
21.87592315673828,-2.46,4.56,2.0,5.55
21.880736351013184,-2.3,4.13,1.36,4.91
21.89127230644226,-2.02,3.72,-0.2,4.23
21.95813226699829,-0.59,2.91,0.56,3.02
21.960174083709717,1.78,0.63,1.12,2.19
21.96242332458496,3.86,-2.21,0.57,4.48
21.96523427963257,4.71,-3.48,0.32,5.86
21.968010425567627,4.19,-2.82,-0.84,5.11
21.970673084259033,2.85,-1.1,-1.04,3.22
21.97268009185791,1.64,0.18,-0.59,1.75
21.988887310028076,0.62,0.67,-0.47,1.02
21.990928173065186,-0.03,0.8,-0.82,1.14
21.994685173034668,-0.32,0.72,-1.06,1.32
22.059807300567627,-0.34,0.59,-0.75,1.01
22.061950206756592,0.04,0.24,-0.15,0.28
22.063793182373047,0.28,-0.28,-0.18,0.43
22.066537380218506,-0.13,-0.49,-0.48,0.69
22.070013284683228,-0.55,-0.35,-0.84,1.06
22.07196807861328,-0.86,-0.28,-0.88,1.26
22.074771404266357,-1.25,-0.37,-0.78,1.51
22.07753038406372,-1.6,-0.36,-0.71,1.78
22.080310344696045,-2.3,0.06,-0.63,2.38
22.08953022956848,-2.62,0.69,0.06,2.71
22.156780242919922,-2.58,1.19,0.1,2.84
22.15883731842041,-2.66,1.44,0.13,3.02
22.160760402679443,-2.32,1.47,0.65,2.82
22.163384199142456,-1.09,1.44,0.87,2.0
22.16604232788086,0.33,1.44,0.88,1.71
22.16844940185547,1.49,1.12,1.61,2.46
22.170913219451904,2.23,0.39,1.88,2.94
22.17344617843628,2.22,-0.32,1.68,2.8
22.1787371635437,0.91,-0.76,1.6,1.99
22.18892812728882,0.1,-0.73,1.23,1.43
22.256704330444336,0.26,-0.12,0.48,0.55
22.25879716873169,0.16,0.39,0.25,0.49
22.26072931289673,0.09,0.56,0.92,1.08
22.263359308242798,0.06,0.67,1.59,1.72
22.26610827445984,-0.46,0.3,1.82,1.9
22.26871109008789,-0.73,-0.64,1.85,2.08
22.270554304122925,-0.97,-1.49,1.51,2.33
22.273507118225098,-1.2,-2.1,0.99,2.61
22.278120279312134,-1.43,-2.48,0.23,2.87
22.288487195968628,-2.07,-2.62,0.11,3.34
22.360657215118408,-3.41,-2.5,-0.17,4.23
22.36288022994995,-4.94,-2.2,-0.11,5.4
22.364793300628662,-6.07,-1.69,0.14,6.3
22.367534160614014,-6.65,-1.28,-0.39,6.78
22.37018632888794,-6.73,-1.46,0.58,6.91
22.372217178344727,-4.97,-2.91,3.17,6.57
22.38870334625244,-3.81,-3.7,3.73,6.48
22.39067316055298,-3.79,-3.97,3.9,6.73
22.394428253173828,-4.06,-4.28,4.21,7.24
22.397257328033447,-5.26,-4.88,3.5,7.98
22.461730241775513,-6.85,-6.6,2.67,9.87
22.464271306991577,-6.13,-9.37,2.36,11.44
22.46615219116211,-2.19,-12.31,2.29,12.71
22.468693256378174,-0.67,-14.22,4.94,15.06
22.47056221961975,-4.04,-13.62,5.1,15.09
22.47357726097107,-5.8,-11.09,3.96,13.12
22.47637939453125,-5.74,-8.09,4.66,10.95
22.479090213775635,-5.35,-5.81,4.38,9.03
22.48192024230957,-3.61,-4.69,2.77,6.53
22.486783266067505,-0.98,-4.31,0.77,4.48
22.559011220932007,0.73,-4.11,-0.19,4.17
22.561195373535156,1.47,-3.59,-0.46,3.9
22.563586235046387,2.19,-2.66,-1.73,3.85
22.566450119018555,2.94,-1.11,-2.6,4.07
22.56993532180786,3.92,0.95,-1.53,4.31
22.571795225143433,4.29,3.14,-0.53,5.34
22.574501276016235,3.11,4.87,-0.83,5.83
22.577259302139282,0.18,6.19,1.07,6.28
22.580024242401123,-3.64,7.07,3.23,8.58
22.58597421646118,-7.15,7.44,3.97,11.05
22.658437252044678,-9.01,7.8,4.16,12.62
22.660471200942993,-8.41,8.0,5.23,12.73
22.662386417388916,-6.85,7.92,6.09,12.11
22.66616439819336,-5.73,7.35,5.44,10.79
22.668906211853027,-5.24,6.3,3.59,8.94
22.670762300491333,-5.38,5.2,3.14,8.11
22.67343235015869,-4.22,4.41,4.02,7.3
22.67609739303589,-2.01,4.13,4.31,6.29
22.678858280181885,-0.61,4.04,3.11,5.13
22.68525528907776,-0.25,3.84,1.51,4.13
22.695680141448975,-0.2,3.41,1.04,3.57
22.762556076049805,1.21,2.76,2.07,3.65
22.76541519165039,3.38,2.19,2.69,4.84
22.767367362976074,5.06,1.86,2.02,5.75
22.77031922340393,5.96,1.81,1.13,6.33
22.772223234176636,6.01,2.25,0.48,6.43
22.78837537765503,5.35,2.73,0.0,6.0
22.790375232696533,4.27,2.76,-0.11,5.08
22.793026208877563,2.69,2.3,0.71,3.6
22.795825242996216,0.52,1.21,2.09,2.47
22.79861307144165,-0.4,-0.75,2.21,2.36
22.862775325775146,0.34,-3.34,0.69,3.42
22.865527153015137,1.74,-6.15,-0.13,6.39
22.86742115020752,4.24,-8.45,0.4,9.46
22.871822357177734,6.74,-9.08,1.84,11.45
22.874776363372803,7.42,-8.27,3.15,11.54
22.877549171447754,5.79,-6.46,4.42,9.73
22.880317211151123,4.16,-4.49,6.04,8.59
22.883073329925537,2.97,-2.06,6.6,7.52
22.885679244995117,2.06,-0.23,5.44,5.82
22.893880367279053,0.79,-1.07,1.07,1.7
22.960708141326904,-6.63,-5.26,-3.69,9.23
22.963215351104736,-21.11,-13.25,1.2,24.95
22.965076208114624,-19.84,-21.71,14.09,32.61
22.967531204223633,-1.56,-14.66,14.22,20.48
22.970445156097412,6.68,-1.09,3.37,7.56
22.972331285476685,9.54,8.06,-4.19,13.17
22.988605260849,11.58,13.09,-4.45,18.03
22.990599155426025,13.45,13.94,-8.59,21.18
22.994234085083008,12.63,10.37,-12.58,20.62
22.997039318084717,10.93,3.44,-9.03,14.58
23.06130313873291,11.74,-2.43,-2.04,12.16
23.063920259475708,11.07,-5.4,0.22,12.31
23.06576442718506,6.88,-5.75,-0.08,8.96
23.068528175354004,1.24,-3.91,2.69,4.9
23.07036328315735,-2.42,-2.64,4.25,5.55
23.074020385742188,-4.14,-1.78,3.68,5.81
23.076818227767944,-4.69,-0.38,2.4,5.28
23.079556226730347,-3.36,0.49,0.67,3.46
23.082548141479492,-0.45,0.31,-1.14,1.26
23.093002319335938,2.5,-0.1,-1.92,3.15
23.16439723968506,4.22,0.13,-2.16,4.74
23.166444301605225,4.33,0.5,-2.73,5.14
23.168886184692383,3.61,0.8,-3.07,4.8
23.17081642150879,2.17,0.69,-2.33,3.25
23.173917293548584,0.49,0.31,-1.32,1.44
23.176703214645386,-1.16,0.03,-0.32,1.2
23.179498195648193,-2.42,-0.05,0.08,2.42
23.182254314422607,-2.97,-0.17,0.61,3.03
23.185068130493164,-2.52,-0.15,0.72,2.62
23.191858291625977,-1.73,-0.06,0.55,1.81
23.26407241821289,-1.1,0.31,0.54,1.26
23.266688346862793,0.02,0.43,0.43,0.6
23.26860022544861,0.74,0.4,0.16,0.85
23.270507335662842,0.8,0.2,-0.2,0.84
23.273096084594727,0.55,-0.1,-0.28,0.62
23.275888204574585,0.12,-0.35,0.17,0.4
23.27867317199707,-0.24,-0.47,0.52,0.74
23.281480312347412,-0.66,-0.36,0.64,0.98
23.28428840637207,-1.08,-0.03,0.54,1.2
23.29115915298462,-1.49,0.21,0.56,1.6
23.36315107345581,-1.67,0.25,0.09,1.69
23.365912199020386,-1.93,0.13,-0.53,2.0
23.367858409881592,-1.89,0.0,-0.31,1.91
23.36978030204773,-1.65,-0.09,0.18,1.66
23.373024225234985,-1.54,0.01,0.3,1.56
23.375768184661865,-1.47,0.2,0.69,1.63
23.378541231155396,-2.05,0.02,0.85,2.21
23.381295204162598,-3.15,-0.48,0.88,3.3
23.384133338928223,-3.84,-0.89,1.31,4.15
23.3905291557312,-4.2,-1.23,1.13,4.51
23.4621422290802,-4.63,-1.7,0.85,5.0
23.46468734741211,-3.99,-2.32,0.81,4.68
23.466590404510498,-2.04,-2.8,-0.5,3.5
23.469133377075195,0.06,-2.96,-0.97,3.11
23.471018314361572,1.85,-2.99,0.36,3.53
23.47376322746277,2.48,-3.12,0.4,4.0
23.476547241210938,1.86,-3.3,0.43,3.81
23.479212284088135,0.34,-3.75,-0.04,3.76
23.48196530342102,-1.61,-4.82,0.76,5.13
23.489872217178345,-3.27,-6.57,2.68,7.81
23.49978733062744,-4.95,-7.67,3.1,9.64
23.565778255462646,-6.74,-7.53,2.13,10.32
23.56842827796936,-8.51,-7.19,1.8,11.28
23.570377349853516,-9.18,-8.01,2.93,12.53
23.572338104248047,-8.14,-9.26,4.8,13.23
23.589696407318115,-6.9,-9.22,5.79,12.88
23.591745376586914,-7.12,-7.55,4.36,11.25
23.59460210800171,-8.33,-5.44,3.52,10.55
23.597325325012207,-8.26,-4.26,3.39,9.89
23.600144386291504,-6.47,-5.17,1.83,8.48
23.602736234664917,-2.9,-8.04,-2.47,8.89
23.6654531955719,1.97,-10.97,-4.5,12.01
23.668078422546387,6.86,-12.28,-3.22,14.43
23.670047283172607,11.07,-11.28,-1.23,15.85
23.672099113464355,12.9,-8.52,-2.44,15.65
23.689812183380127,11.34,-5.31,-6.3,14.01
23.691838264465332,8.02,-3.96,-4.53,10.02
23.69468927383423,6.01,-4.12,-1.34,7.4
23.697505235671997,4.41,-4.37,-0.69,6.24
23.700241088867188,1.58,-4.43,0.36,4.71
23.70293927192688,-1.32,-4.34,2.73,5.29
23.765966415405273,-4.0,-3.65,4.93,7.32
23.76867914199829,-5.69,-2.18,6.64,9.01
23.770613193511963,-6.07,-0.21,7.22,9.43
23.77260112762451,-5.91,2.33,6.53,9.11
23.789379119873047,-5.97,4.97,5.2,9.34
23.791349411010742,-6.45,6.68,5.56,10.82
23.79509735107422,-6.23,8.13,6.86,12.32
23.797966241836548,-5.41,8.81,5.61,11.76
23.80086040496826,-5.23,8.79,4.3,11.09
23.804195404052734,-5.14,7.82,4.61,10.43
23.86682415008545,-4.79,6.63,5.09,9.63
23.87038516998291,-4.69,5.93,5.38,9.27
23.872340202331543,-4.8,6.13,4.79,9.14
23.875004291534424,-4.3,7.12,3.87,9.17
23.87763214111328,-3.38,8.17,3.36,9.45
23.880284309387207,-2.61,9.1,3.15,9.97
23.88301730155945,-1.84,9.53,2.79,10.09
23.885658264160156,-0.79,9.46,3.07,9.97
23.88795828819275,0.11,9.73,2.94,10.16
23.896947383880615,1.25,10.16,2.25,10.48
23.96777319908142,1.89,10.32,0.88,10.52
23.970028400421143,1.48,9.5,-0.33,9.62
23.971927165985107,1.0,7.73,-0.74,7.82
23.97572922706604,1.64,6.09,-1.42,6.46
23.97849416732788,3.89,5.27,-2.78,7.11
23.98124408721924,7.1,5.57,-3.67,9.74
23.98402428627014,9.18,6.88,-4.28,12.24
23.987425327301025,9.42,8.9,-3.86,13.52
23.9895601272583,9.09,10.82,-7.2,15.86
23.996660232543945,9.64,11.05,-28.63,32.16
24.067386150360107,14.69,5.84,-33.54,37.07
24.070587158203125,18.78,-10.11,21.94,30.59
24.072808265686035,0.32,-20.94,27.87,34.86
24.075579166412354,-11.09,-15.54,-5.47,19.85
24.078359127044678,-6.06,-6.73,-17.1,19.35
24.081117153167725,5.5,-1.74,-0.53,5.79
24.083895206451416,6.5,-1.36,12.48,14.13
24.0866482257843,-0.62,-1.14,-5.77,5.91
24.08859419822693,-3.35,1.48,-9.72,10.38
24.095866203308105,-0.25,3.47,-0.25,3.48
24.166720390319824,7.77,2.39,0.09,8.12
24.169352293014526,12.21,0.87,0.47,12.24
24.171244144439697,9.89,0.47,-1.07,9.95
24.174432277679443,5.38,0.63,-0.97,5.5
24.177187204360962,1.64,0.45,0.24,1.71
24.17988109588623,-1.26,-0.25,0.26,1.31
24.182634353637695,-2.81,-0.22,-0.24,2.82
24.185516357421875,-2.21,-0.19,-0.4,2.25
24.188103199005127,-0.56,-0.13,-0.02,0.57
24.1948881149292,0.44,0.2,-0.03,0.48
24.26679825782776,0.4,0.04,-0.36,0.53
24.2689471244812,-0.03,0.06,-0.86,0.86
24.270920276641846,0.15,0.12,-0.66,0.68
24.273219108581543,0.8,0.07,-0.56,0.97
24.29048728942871,1.29,-0.31,-0.39,1.38
24.292514324188232,0.88,-0.74,0.26,1.17
24.295197248458862,0.46,-1.12,0.56,1.33
24.297959327697754,0.27,-1.01,0.57,1.19
24.300742149353027,-0.07,-0.57,0.41,0.7
24.304261207580566,-0.49,-0.14,0.45,0.67
24.306130409240723,-0.45,0.42,0.13,0.62
24.370352268218994,0.21,0.98,-0.21,1.02
24.37294626235962,1.37,1.07,-0.73,1.88
24.374771118164062,2.24,0.77,-0.88,2.52
24.37746524810791,2.28,0.03,-0.45,2.32
24.380218267440796,1.67,-0.61,-0.02,1.77
24.382864236831665,0.8,-0.81,0.23,1.16
24.385608196258545,-0.06,-0.7,0.58,0.91
24.38827610015869,-0.92,-0.29,1.2,1.53
24.393592357635498,-1.67,0.12,1.61,2.32
24.406001091003418,-2.16,0.5,1.54,2.69
24.469717264175415,-2.41,0.5,1.45,2.85
24.472275257110596,-2.56,0.43,1.18,2.85
24.474051237106323,-2.23,0.49,0.98,2.48
24.476656198501587,-1.61,0.68,0.73,1.89
24.479435205459595,-1.44,0.97,0.51,1.8
24.48219108581543,-1.58,1.11,0.93,2.14
24.48502230644226,-1.64,1.06,1.31,2.35
24.48772621154785,-1.55,1.04,1.76,2.56
24.492927074432373,-1.83,1.08,1.53,2.61
24.50641107559204,-2.36,1.02,1.46,2.95
24.568507194519043,-2.54,0.87,1.86,3.26
24.57072114944458,-2.76,0.32,1.47,3.14
24.572784423828125,-2.99,-0.79,0.34,3.11
24.575555324554443,-2.75,-1.89,-0.42,3.36
24.578367233276367,-1.83,-2.05,0.18,2.75
24.581125259399414,-2.08,-1.75,0.11,2.72
24.58388042449951,-3.65,-2.26,0.09,4.29
24.58648419380188,-4.87,-3.2,0.38,5.83
24.59248423576355,-4.68,-4.22,-1.51,6.48
24.602127075195312,-2.5,-4.92,-1.36,5.68
24.667763233184814,0.41,-4.68,-1.87,5.05
24.66983413696289,2.51,-3.84,-1.99,5.0
24.671757221221924,3.88,-3.69,-0.71,5.4
24.674862384796143,4.0,-4.53,0.63,6.07
24.677627086639404,1.95,-5.78,1.16,6.2
24.68041229248047,-0.5,-7.45,1.61,7.63
24.683165073394775,-1.23,-9.47,2.7,9.92
24.6860032081604,-2.66,-11.31,2.8,11.95
24.692058086395264,-5.2,-12.15,2.34,13.42
24.703123092651367,-7.6,-11.4,2.04,13.85
24.772245407104492,-9.42,-9.76,2.79,13.84
24.774482250213623,-10.65,-8.03,3.35,13.75
24.776426315307617,-10.76,-6.31,3.17,12.87
24.779113292694092,-10.73,-4.94,3.53,12.32
24.781906127929688,-11.95,-4.93,2.18,13.1
24.784708261489868,-13.95,-6.35,1.86,15.43
24.78794240951538,-8.84,-8.23,-0.53,12.08
24.789802074432373,-1.01,-8.76,-5.58,10.43
24.80634832382202,4.45,-9.58,-6.0,12.14
24.80831027030945,8.99,-10.53,-3.56,14.29
24.87247610092163,10.53,-7.72,-3.93,13.63
24.875007152557373,8.44,-2.6,-5.66,10.48
24.876869201660156,5.84,0.32,-5.16,7.79
24.87956714630127,4.36,1.21,-4.88,6.65
24.882301330566406,3.12,1.45,-3.95,5.23
24.885141372680664,1.57,0.89,-2.69,3.23
24.887967109680176,-0.29,-0.24,-1.11,1.17
24.889825344085693,-2.5,-0.48,0.58,2.61
24.90698528289795,-4.36,0.23,2.35,4.95
24.909001350402832,-5.2,1.27,3.73,6.52
24.973580360412598,-5.41,2.65,3.6,7.01
24.9762122631073,-5.7,4.33,2.64,7.62
24.97806429862976,-6.14,5.72,2.42,8.73
24.98076629638672,-6.4,6.96,3.24,9.99
24.98361325263977,-6.38,7.75,3.65,10.68
24.98639726638794,-6.11,7.97,3.13,10.51
24.98820734024048,-6.02,7.8,2.9,10.27
24.991371154785156,-5.86,7.74,3.23,10.23
24.99416208267212,-5.33,7.65,3.33,9.9
24.99946427345276,-4.75,7.9,3.02,9.7
25.0698561668396,-4.41,8.19,2.95,9.75
25.072567224502563,-4.13,8.49,2.97,9.89
25.07443332672119,-3.63,8.58,2.5,9.64
25.09071922302246,-2.88,8.57,1.85,9.22
25.0927152633667,-2.18,8.47,2.23,9.02
25.09644627571106,-1.49,8.14,2.58,8.66
25.099314212799072,-0.8,7.88,1.99,8.16
25.102115154266357,-0.01,7.67,0.57,7.69
25.104913234710693,0.71,7.55,-0.34,7.59
25.10696530342102,1.47,7.47,-0.43,7.62
25.122238159179688,2.41,6.96,-1.15,7.45
25.184694290161133,3.48,6.32,-2.03,7.49
25.187732219696045,4.82,5.55,-2.26,7.69
25.189637184143066,6.12,4.64,-1.66,7.85
25.192336082458496,6.86,3.87,-1.33,7.98
25.195053100585938,6.94,3.86,-1.02,8.0
25.197840213775635,6.79,4.84,-0.47,8.35
25.200619220733643,6.7,6.43,-0.02,9.28
25.203232288360596,6.65,8.53,0.41,10.82
25.205058097839355,5.84,10.59,-3.52,12.59
25.207999229431152,4.73,9.75,-25.69,27.88
25.273675203323364,6.49,-2.29,-29.97,30.75
25.276170253753662,15.49,-44.47,33.05,57.53
25.278043270111084,4.72,-48.64,24.89,54.84
25.280776262283325,-3.15,-12.3,-14.34,19.15
25.283469200134277,0.75,3.68,-14.02,14.51
25.286287307739258,1.04,10.71,2.72,11.09
25.288981199264526,-0.81,12.53,1.9,12.69
25.290948390960693,-1.27,15.46,-1.33,15.56
25.30698823928833,-2.47,14.92,0.05,15.12
25.308948278427124,0.3,7.34,-1.04,7.41
25.372746229171753,3.84,0.0,-4.86,6.19
25.37532329559326,7.92,-5.99,-3.04,10.38
25.37720823287964,9.82,-9.65,-0.54,13.77
25.37998127937317,7.44,-8.66,-1.86,11.56
25.382665157318115,3.74,-4.91,-0.5,6.19
25.385510206222534,-0.1,-1.63,1.77,2.4
25.388136386871338,-1.29,0.15,1.04,1.66
25.390007257461548,-1.09,1.96,0.34,2.26
25.40737819671631,-0.19,3.16,0.21,3.17
25.409340381622314,0.94,3.26,0.55,3.43
25.47283124923706,2.4,2.07,-0.1,3.17
25.475401401519775,3.52,0.5,-0.76,3.63
25.477251291275024,3.69,-0.85,-0.35,3.8
25.479929208755493,2.8,-1.33,-0.47,3.13
25.482693195343018,1.55,-1.36,-0.74,2.19
25.48554515838623,0.46,-1.35,-0.86,1.66
25.488152265548706,-0.3,-1.07,-0.73,1.32
25.489996194839478,-0.84,-0.62,-0.35,1.1
25.507193088531494,-1.26,-0.04,-0.2,1.27
25.50922441482544,-1.47,0.5,-0.51,1.63
25.57604217529297,-1.08,0.66,-0.65,1.42
25.578647136688232,-0.66,0.52,-0.17,0.85
25.580535411834717,-0.4,0.43,0.46,0.74
25.583237171173096,-0.09,0.82,0.54,0.98
25.585941314697266,0.13,1.72,0.56,1.81
25.588661193847656,0.04,2.49,0.89,2.64
25.590773105621338,-0.16,2.81,1.35,3.12
25.606924295425415,-0.3,2.49,1.34,2.84
25.608888149261475,-1.2,1.58,1.43,2.44
25.611553192138672,-1.95,0.66,1.28,2.42
25.675121307373047,-2.2,0.39,1.11,2.49
25.67757511138916,-3.03,0.49,1.11,3.26
25.679317235946655,-4.19,0.65,1.46,4.48
25.682045221328735,-5.03,0.76,0.94,5.17
25.684921264648438,-4.77,0.18,-0.21,4.77
25.689373254776,-3.11,-1.16,-0.62,3.37
25.69217824935913,-0.43,-2.62,0.16,2.65
25.707277297973633,1.37,-3.2,0.63,3.53
25.70922327041626,1.22,-2.54,0.24,2.82
25.7120943069458,0.01,-1.14,0.13,1.14
25.774546146392822,-2.0,-0.2,0.04,2.01
25.777138233184814,-4.03,-0.34,-0.8,4.12
25.778966426849365,-5.43,-1.19,-1.72,5.81
25.781692266464233,-5.53,-2.75,-1.29,6.3
25.784571170806885,-4.18,-4.48,-0.49,6.14
25.78725242614746,-2.96,-5.16,0.13,5.95
25.789127349853516,-2.09,-4.51,0.7,5.01
25.791943073272705,-1.55,-3.28,0.13,3.63
25.794658184051514,-2.72,-3.07,0.71,4.16
25.803969383239746,-4.9,-4.49,2.48,7.09
25.874154090881348,-7.43,-5.98,2.57,9.87
25.87621831893921,-8.95,-7.28,2.16,11.73
25.878141403198242,-8.27,-7.78,1.85,11.5
25.881887197494507,-6.99,-7.22,2.11,10.26
25.88468313217163,-6.27,-6.84,3.24,9.82
25.888160228729248,-6.28,-6.8,4.34,10.22
25.890002250671387,-6.85,-6.7,5.7,11.14
25.89269733428955,-7.01,-6.7,6.07,11.44
25.89524507522583,-7.58,-7.08,6.26,12.11
25.903385162353516,-7.29,-8.63,4.87,12.3
25.913698196411133,-6.27,-10.97,0.65,12.65
25.978028297424316,-3.97,-12.48,-1.78,13.21
25.980562210083008,1.26,-11.4,-1.88,11.62
25.98246717453003,5.2,-9.03,-1.83,10.57
25.985209226608276,7.09,-6.77,-2.85,10.2
25.98850917816162,8.06,-4.14,-4.34,10.04
25.99056625366211,7.85,-1.23,-5.73,9.79
26.00706911087036,5.91,0.29,-5.45,8.04
26.009092330932617,3.33,0.05,-4.11,5.28
26.011934280395508,1.29,-0.92,-3.69,4.01
26.0145902633667,-0.59,-2.1,-3.27,3.93
26.07749319076538,-2.23,-2.43,-2.03,3.87
26.080286264419556,-3.1,-2.8,-0.73,4.24
26.082168102264404,-3.55,-2.3,0.04,4.23
26.084909200668335,-3.69,-1.04,0.55,3.87
26.088406085968018,-3.89,0.66,1.01,4.07
26.090272426605225,-4.45,2.31,1.41,5.2
26.092920303344727,-5.56,3.88,1.52,6.94
26.095417261123657,-7.25,5.64,2.24,9.45
26.101813316345215,-8.6,6.47,3.25,11.24
26.111929416656494,-9.12,6.82,4.06,12.09
26.17755627632141,-8.35,6.83,3.49,11.33
26.18028426170349,-7.49,7.42,2.57,10.85
26.182204246520996,-7.06,7.9,2.18,10.81
26.1849102973938,-6.81,8.32,2.19,10.97
26.1882643699646,-6.12,8.6,2.19,10.78
26.190038204193115,-5.18,8.89,1.55,10.4
26.192756175994873,-4.56,8.98,0.65,10.09
26.19553232192993,-3.77,9.03,1.05,9.84
26.201107263565063,-2.24,9.34,1.29,9.69
26.21157217025757,-0.82,9.72,0.49,9.76
26.27590823173523,0.39,9.71,0.05,9.71
26.278720378875732,1.58,9.41,-0.97,9.59
26.280638217926025,2.08,9.16,-2.36,9.68
26.283438205718994,1.99,8.83,-2.0,9.26
26.286190271377563,1.91,8.28,-0.98,8.55
26.289039134979248,2.17,7.65,-0.58,7.97
26.291298389434814,2.84,7.19,-1.27,7.83
26.30778217315674,4.17,7.21,-3.05,8.86
26.309816360473633,5.7,7.2,-4.07,10.04
26.312607288360596,6.87,6.81,-3.21,10.19
26.38015127182007,7.58,6.4,-2.35,10.19
26.382634162902832,7.9,6.36,-2.55,10.45
26.384578227996826,7.37,7.07,-2.83,10.59
26.388293266296387,5.94,7.58,-2.92,10.06
26.390442371368408,2.58,5.61,-15.1,16.31
26.393145084381104,-0.2,-4.81,-27.13,27.55
26.395738124847412,6.51,-45.63,12.13,47.66
26.39829921722412,13.71,-53.23,33.63,64.43
26.401159286499023,2.98,-13.21,0.25,13.54
26.4100341796875,-1.03,3.97,-17.9,18.36
26.47892713546753,-3.23,13.8,-8.0,16.27
26.481579303741455,-5.8,19.69,2.07,20.63
26.48351812362671,-5.83,20.74,-0.9,21.56
26.486237287521362,-3.56,14.29,-3.74,15.19
26.48904037475586,1.56,5.26,-0.48,5.5
26.491196155548096,7.2,-2.69,-1.96,7.93
26.508095264434814,10.86,-10.59,-3.33,15.52
26.510119199752808,11.1,-13.7,-2.03,17.74
26.512993335723877,7.25,-8.86,-0.51,11.45
26.51573133468628,2.72,-3.14,1.03,4.28
26.57872724533081,-0.26,0.61,2.12,2.22
26.581315279006958,-1.04,2.65,2.57,3.83
26.58316135406494,-1.2,3.68,1.79,4.26
26.585861206054688,-1.15,3.8,0.83,4.05
26.5888671875,-0.15,3.24,1.04,3.4
26.59079933166504,1.0,1.81,1.32,2.45
26.607776165008545,2.06,-0.02,0.62,2.15
26.609796285629272,2.73,-1.64,0.14,3.18
26.612685203552246,3.14,-2.25,-0.1,3.86
26.61547040939331,3.22,-2.28,0.17,3.94
26.678240299224854,2.38,-1.07,0.07,2.61
26.680837154388428,1.23,0.27,0.13,1.26
26.68266725540161,0.07,1.1,0.06,1.1
26.685432195663452,-1.0,1.31,-0.04,1.64
26.688762187957764,-1.77,1.05,-0.02,2.05
26.69071125984192,-1.72,0.79,0.19,1.9
26.70766830444336,-1.51,0.57,-0.42,1.66
26.709659099578857,-1.27,0.47,-0.57,1.46
26.71350908279419,-1.06,0.4,0.03,1.13
26.716217279434204,-1.32,0.38,0.53,1.47
26.719082355499268,-1.54,0.68,0.79,1.85
26.782118320465088,-1.61,1.31,1.04,2.32
26.784306287765503,-2.16,1.42,1.38,2.93
26.786665201187134,-2.67,0.7,1.53,3.15
26.78941535949707,-2.96,-0.09,1.46,3.3
26.791653156280518,-3.44,-0.39,1.12,3.63
26.80801224708557,-3.33,-0.24,0.93,3.46
26.809996128082275,-2.48,0.02,0.27,2.49
26.8127121925354,-1.83,0.17,0.34,1.86
26.81544542312622,-1.04,0.22,0.18,1.07
26.818257331848145,-0.78,0.21,0.4,0.9
26.88184642791748,-0.86,-0.22,0.67,1.11
26.884032249450684,-1.23,-0.85,0.63,1.62
26.88642430305481,-1.91,-1.49,1.11,2.66
26.889257192611694,-1.91,-1.89,0.75,2.78
26.89131736755371,-1.26,-1.77,0.56,2.24
26.907658100128174,-0.71,-1.4,0.63,1.69
26.909610271453857,-0.56,-1.41,0.06,1.51
26.913294315338135,-0.76,-1.87,-0.29,2.03
26.916130304336548,-1.11,-2.48,-0.25,2.72
26.918809413909912,-1.52,-3.03,-1.17,3.58
26.982076168060303,-1.64,-2.79,-1.78,3.69
26.98427128791809,-1.44,-2.32,-1.66,3.19
26.986684322357178,-0.69,-2.21,-2.35,3.29
26.989575386047363,0.72,-2.49,-1.9,3.21
26.99167013168335,1.95,-3.65,-1.13,4.28
27.007878303527832,2.68,-5.73,-0.03,6.32
27.00998830795288,1.5,-8.28,2.7,8.83
27.01271629333496,-0.25,-10.13,3.04,10.57
27.01554536819458,-2.44,-10.35,2.33,10.88
27.018171310424805,-3.9,-10.42,2.98,11.51
27.08104133605957,-3.74,-10.62,2.12,11.45
27.082969188690186,-3.59,-9.75,2.12,10.6
27.085273265838623,-4.73,-6.74,0.72,8.26
27.08772039413452,-8.49,-2.18,-0.69,8.79
27.089600086212158,-12.86,1.37,-0.95,12.96
27.092586278915405,-13.61,1.54,-0.78,13.71
27.09539031982422,-8.66,-2.23,-1.28,9.03
27.098129272460938,-4.51,-6.93,-1.42,8.38
27.105051279067993,-2.18,-10.08,-2.03,10.51
27.115373134613037,1.96,-10.81,-2.22,11.2
27.185046195983887,7.25,-9.04,-0.78,11.61
27.187637329101562,8.69,-5.76,-0.72,10.45
27.189561367034912,6.62,-3.5,-1.75,7.69
27.192374229431152,4.29,-2.09,-1.13,4.9
27.195091247558594,2.67,-0.81,0.24,2.8
27.197866201400757,1.14,0.6,1.15,1.72
27.200640201568604,-0.36,0.97,1.49,1.81
27.203412294387817,-1.55,0.88,1.73,2.48
27.206164360046387,-2.9,1.39,2.14,3.86
27.214227199554443,-4.32,1.71,2.79,5.41
27.285659313201904,-5.46,1.84,3.93,6.97
27.28797435760498,-5.84,2.45,4.83,7.96
27.290025234222412,-5.99,3.41,5.34,8.71
27.29271626472473,-6.22,4.07,5.57,9.28
27.295191287994385,-6.62,4.93,6.04,10.22
27.297657251358032,-7.15,5.6,6.57,11.2
27.30029320716858,-7.41,5.98,7.01,11.82
27.303089141845703,-7.36,5.74,6.8,11.54
27.306047201156616,-7.73,5.35,6.26,11.29
27.313618183135986,-8.15,5.0,5.88,11.22
27.38466739654541,-8.4,4.65,5.76,11.19
27.38686728477478,-8.01,4.27,5.39,10.55
27.38880729675293,-7.62,4.02,4.86,9.89
27.391099214553833,-7.09,3.7,4.63,9.24
27.407138347625732,-6.01,3.52,4.5,8.29
27.409118175506592,-4.68,3.37,3.86,6.93
27.412899255752563,-3.55,2.98,2.85,5.44
27.415589332580566,-2.51,2.46,2.26,4.17
27.41827630996704,-1.32,2.01,2.16,3.23
27.420978307724,-0.21,1.65,1.73,2.39
27.48357129096985,0.6,1.36,0.74,1.66
27.486181259155273,1.33,0.9,-0.34,1.64
27.488080263137817,1.85,0.66,-1.49,2.46
27.49001932144165,2.14,0.64,-2.38,3.26
27.508790254592896,2.3,0.75,-2.25,3.3
27.51075839996338,2.27,1.08,-1.92,3.16
27.51357626914978,2.59,1.28,-2.46,3.79
27.516345262527466,3.02,1.03,-3.86,5.0
27.51912522315979,3.17,0.15,-4.71,5.67
27.522462368011475,3.18,-1.09,-4.19,5.37
27.524253368377686,3.3,-2.19,-3.52,5.29
27.588318347930908,3.23,-3.01,-2.72,5.18
27.590888261795044,2.47,-3.41,-1.73,4.55
27.592732191085815,0.9,-3.64,-0.19,3.75
27.59541630744934,-0.34,-4.85,2.29,5.37
27.598212242126465,-1.14,-6.95,5.15,8.72
27.600987195968628,-2.37,-7.97,8.24,11.7
27.603828191757202,-2.68,-8.11,11.46,14.29
27.606428146362305,-1.89,-6.82,13.58,15.31
27.611505270004272,-1.02,-3.39,13.07,13.54
27.62625217437744,0.33,0.62,8.07,8.1
27.689820289611816,0.85,2.31,2.52,3.52
27.692384243011475,-1.08,-0.58,-3.07,3.3
27.69428324699402,-7.72,-8.15,-4.76,12.19
27.696988105773926,-12.5,-20.2,3.93,24.07
27.699565410614014,-0.77,-23.79,14.24,27.73
27.702301263809204,10.18,-9.4,7.93,15.96
27.705790281295776,10.62,3.45,-1.01,11.21
27.70777940750122,7.89,9.99,0.51,12.74
27.71095609664917,4.6,13.23,0.55,14.01
27.720895290374756,2.93,12.74,-6.4,14.55
27.787293195724487,3.92,7.69,-10.41,13.52
27.78961420059204,7.54,1.17,-6.49,10.01
27.791718244552612,10.91,-3.98,-2.26,11.83
27.79459238052368,10.72,-6.28,-2.18,12.61
27.797396183013916,6.77,-4.52,-0.74,8.17
27.80015516281128,1.56,-1.14,2.65,3.27
27.80294132232666,-2.38,0.59,3.96,4.65
27.806084156036377,-4.3,0.62,3.43,5.53
27.810168266296387,-4.12,-0.16,2.31,4.72
27.823535203933716,-2.48,-0.47,0.86,2.66
27.88724136352539,0.23,-0.95,0.26,1.01
27.889984130859375,2.58,-0.39,-0.13,2.61
27.892008304595947,4.05,0.22,-1.03,4.18
27.89570713043213,4.11,0.35,-1.73,4.47
27.89846134185791,3.41,0.47,-1.4,3.71
27.901174306869507,2.03,0.52,-0.96,2.3
27.903924226760864,-0.15,0.74,-0.7,1.02
27.906383275985718,-1.82,0.38,-0.05,1.85
27.909560203552246,-2.41,-0.16,0.43,2.45
27.923870086669922,-2.34,-0.28,0.47,2.4
27.990929126739502,-1.83,-0.45,0.99,2.12
27.99356722831726,-1.14,-0.43,1.02,1.58
27.995503425598145,-0.34,-0.22,0.48,0.62
27.99820327758789,0.29,-0.06,0.22,0.36
28.000946283340454,0.53,-0.1,0.02,0.53
28.0036883354187,0.33,-0.17,-0.54,0.65
28.006415367126465,0.12,-0.28,-0.71,0.77
28.0085232257843,-0.32,-0.47,-0.55,0.79
28.024624347686768,-0.7,-0.52,0.26,0.9
28.02657127380371,-0.89,-0.33,0.61,1.12
28.092141151428223,-1.36,-0.23,0.68,1.53
28.094725131988525,-2.13,-0.16,0.91,2.32
28.09658122062683,-2.52,0.04,1.42,2.89
28.099356174468994,-2.43,0.09,1.45,2.83
28.102126121520996,-2.21,-0.21,0.76,2.34
28.104766368865967,-2.15,-0.33,0.7,2.28
28.106608390808105,-2.11,-0.27,1.26,2.47
28.109374284744263,-2.21,-0.19,0.51,2.27
28.11212730407715,-2.44,-0.47,0.29,2.5
28.118021249771118,-2.31,-0.93,1.94,3.15
28.18911838531494,-2.36,-1.09,1.98,3.26
28.191630363464355,-3.34,-1.03,1.45,3.78
28.19347333908081,-4.42,-1.01,1.47,4.76
28.19620132446289,-4.5,-1.21,0.87,4.74
28.19898223876953,-3.53,-1.73,0.61,3.97
28.201738357543945,-2.21,-2.1,1.29,3.31
28.204488277435303,-1.61,-2.12,1.73,3.17
28.20618724822998,-1.85,-2.12,1.51,3.19
28.20914626121521,-2.1,-2.43,0.78,3.3
28.217297077178955,-2.9,-3.24,0.14,4.35
28.288365364074707,-3.65,-5.29,0.15,6.42
28.29097819328308,-3.08,-8.4,0.23,8.94
28.29286241531372,-4.84,-11.71,2.02,12.83
28.30992317199707,-8.5,-14.63,3.41,17.26
28.311986207962036,-8.77,-15.54,4.73,18.46
28.315767288208008,-7.09,-14.37,7.16,17.55
28.318547248840332,-5.96,-13.27,8.67,16.93
28.321247100830078,-5.56,-12.24,6.21,14.8
28.323092222213745,-5.61,-10.46,4.11,12.56
28.326093196868896,-3.81,-7.82,4.45,9.77
28.328797340393066,-0.67,-4.89,3.31,5.94
28.392192363739014,2.11,-2.94,-1.46,3.9
28.39475727081299,3.6,-2.18,-4.25,5.98
28.39669418334961,5.11,-1.84,-2.85,6.13
28.39930820465088,7.1,-1.19,-1.59,7.37
28.401862144470215,7.5,-0.39,-0.73,7.54
28.40446710586548,6.52,0.77,-0.44,6.58
28.40723729133606,5.15,1.76,0.5,5.46
28.40945339202881,4.53,2.06,1.38,5.16
28.427181243896484,4.27,1.78,1.18,4.77
28.42922830581665,3.6,1.78,0.92,4.12
28.49440336227417,1.89,2.18,1.71,3.35
28.496962070465088,-1.17,2.9,3.24,4.5
28.498905181884766,-4.46,3.99,4.82,7.68
28.501627206802368,-6.83,4.92,4.92,9.74
28.504314422607422,-7.68,5.69,4.32,10.48
28.50695037841797,-6.8,6.0,4.07,9.94
28.509250164031982,-5.04,5.43,4.16,8.49
28.52642321586609,-2.7,4.26,4.49,6.75
28.52845525741577,-0.58,3.12,3.67,4.85
28.531382083892822,0.54,2.61,2.79,3.85
28.59524631500244,0.9,2.51,3.14,4.11
28.597880363464355,1.53,2.87,3.52,4.79
28.599764347076416,2.28,3.51,3.34,5.35
28.602439403533936,2.01,4.11,3.53,5.77
28.60486125946045,1.19,4.65,3.85,6.15
28.6066632270813,0.57,4.89,3.7,6.15
28.609583377838135,0.5,4.84,3.59,6.04
28.61228919029236,1.13,4.69,4.05,6.29
28.614901304244995,2.2,4.47,4.02,6.4
28.625335216522217,2.89,4.41,3.56,6.36
28.693016290664673,3.33,4.36,3.77,6.65
28.695152282714844,3.56,4.31,3.76,6.73
28.69710421562195,4.0,4.07,3.61,6.75
28.699761390686035,4.64,3.9,2.34,6.49
28.70250415802002,5.14,3.62,0.83,6.34
28.705235242843628,5.84,3.14,0.66,6.66
28.70717716217041,6.82,2.38,0.79,7.26
28.709915161132812,7.84,1.73,0.38,8.03
28.714089393615723,8.7,1.79,-0.09,8.88
28.72440242767334,8.57,2.05,-3.73,9.56
28.797511100769043,8.32,0.07,-12.65,15.14
28.79977035522461,12.53,-7.64,-18.67,23.74
28.801743268966675,18.03,-22.43,3.69,29.01
28.804412364959717,8.24,-24.14,20.83,32.93
28.80705428123474,-8.56,-9.15,5.27,13.59
28.809412240982056,-14.67,1.3,-2.06,14.87
28.826479196548462,-14.26,8.96,-6.71,18.12
28.82862615585327,-11.05,16.42,-10.44,22.37
28.83138942718506,-2.17,20.44,-4.98,21.14
28.83422327041626,9.27,15.94,7.01,19.72
28.898706197738647,12.59,5.32,7.96,15.81
28.901289224624634,10.13,-5.37,-1.02,11.51
28.903247356414795,8.43,-16.31,-4.51,18.9
28.907838344573975,8.76,-18.12,-3.66,20.45
28.909912109375,7.73,-8.61,-1.52,11.67
28.926116228103638,5.11,-1.53,0.36,5.34
28.928260326385498,2.34,1.65,1.25,3.12
28.930975198745728,-0.04,3.1,1.48,3.43
28.933821201324463,-1.53,3.85,0.27,4.15
28.936528205871582,-1.67,3.83,-0.37,4.19
29.00228214263916,0.36,2.31,-0.73,2.44
29.004369258880615,2.58,0.58,-1.27,2.93
29.006652355194092,3.68,-0.89,-1.22,3.97
29.008801221847534,4.05,-2.03,-1.15,4.67
29.025143146514893,3.09,-2.25,-1.36,4.05
29.027144193649292,1.82,-1.18,-1.75,2.78
29.030924320220947,0.91,-0.06,-1.42,1.68
29.033687114715576,0.0,0.41,-0.94,1.02
29.036473274230957,-0.76,0.27,-0.95,1.24
29.039745330810547,-1.21,0.34,-0.99,1.59
29.103291273117065,-0.91,0.22,-0.48,1.05
29.10624408721924,-0.2,0.21,-0.03,0.29
29.108156204223633,0.3,0.34,0.2,0.49
29.111058235168457,0.41,0.32,0.24,0.57
29.113737106323242,0.33,0.2,0.15,0.41
29.116490364074707,0.01,-0.05,0.19,0.19
29.11925721168518,-0.57,-0.07,0.47,0.74
29.12195324897766,-1.27,0.19,0.64,1.43
29.12383222579956,-2.05,0.42,0.47,2.14
29.126442193984985,-2.65,0.52,0.61,2.76
29.131076335906982,-3.21,0.43,0.88,3.35
29.196967124938965,-3.43,0.25,0.75,3.51
29.19952917098999,-3.25,0.17,0.26,3.26
29.201380252838135,-3.15,0.38,0.11,3.17
29.204073190689087,-2.58,0.78,0.16,2.7
29.20674228668213,-1.93,1.08,0.05,2.21
29.20862627029419,-1.96,1.1,0.03,2.24
29.22559642791748,-1.97,1.02,0.19,2.22
29.227596282958984,-1.7,0.98,0.47,2.01
29.231343269348145,-1.17,0.52,0.05,1.28
29.234193325042725,-0.86,-0.56,-0.23,1.05
29.298120260238647,-0.61,-1.57,0.19,1.69
29.300780296325684,-0.26,-1.99,0.38,2.04
29.3026282787323,-0.29,-1.71,-0.13,1.73
29.30764126777649,-0.33,-1.65,-0.03,1.68
29.309803247451782,0.32,-1.97,-0.02,1.99
29.31255340576172,0.95,-2.47,0.38,2.67
29.315307140350342,1.32,-3.17,0.9,3.54
29.31805729866028,0.75,-4.03,0.83,4.18
29.320951223373413,0.51,-5.25,1.62,5.51
29.32974624633789,0.77,-5.75,1.25,5.93
29.395493268966675,-0.04,-5.54,-0.81,5.59
29.39806818962097,-1.34,-5.81,-1.13,6.06
29.4000301361084,-2.3,-6.58,-0.81,7.01
29.40271520614624,-4.03,-8.14,-0.16,9.08
29.40540313720703,-5.76,-10.05,1.26,11.65
29.407283306121826,-8.58,-10.38,2.86,13.76
29.41007137298584,-11.87,-8.78,4.08,15.31
29.412837266921997,-13.32,-6.67,4.03,15.43
29.419126272201538,-14.14,-5.36,5.21,15.99
29.42955207824707,-12.05,-5.62,4.77,14.12
29.494800090789795,-7.71,-7.11,1.9,10.65
29.497364282608032,-4.61,-8.93,-0.72,10.07
29.4992892742157,-0.66,-10.1,-1.94,10.3
29.50196933746338,4.8,-10.36,-3.38,11.9
29.50484824180603,8.77,-9.65,-4.27,13.72
29.50667929649353,10.07,-7.39,-4.26,13.19
29.509990215301514,8.72,-4.6,-4.4,10.79
29.512657165527344,6.43,-2.81,-3.54,7.85
29.518436193466187,4.55,-2.1,-2.12,5.44
29.5285964012146,2.52,-1.91,-1.41,3.46
29.599610328674316,0.47,-2.16,-0.94,2.4
29.60166025161743,-1.39,-2.44,-0.02,2.8
29.604061126708984,-3.2,-2.59,1.47,4.37
29.606926202774048,-4.87,-1.98,2.83,5.97
29.608931303024292,-5.7,-0.79,3.45,6.7
29.626066207885742,-5.22,0.91,2.77,5.97
29.628108263015747,-4.6,2.97,1.4,5.65
29.63077425956726,-4.72,4.27,0.81,6.41
29.633549213409424,-5.16,4.84,1.48,7.22
29.636377334594727,-5.02,5.14,1.86,7.42
29.701231241226196,-4.6,5.35,1.09,7.13
29.703445196151733,-4.22,5.69,0.24,7.08
29.70653533935547,-3.99,5.8,0.13,7.04
29.708481311798096,-3.73,5.94,0.55,7.03
29.726227283477783,-3.37,6.33,0.33,7.17
29.72826910018921,-2.99,6.98,-0.28,7.59
29.731028079986572,-2.41,7.63,-0.86,8.04
29.733703136444092,-2.01,8.11,-0.76,8.38
29.736534118652344,-1.53,8.36,-0.22,8.5
