time,ax,ay,az,atotal
0.0028231143951416016,0.02,-0.28,-0.18,0.33
0.011214971542358398,-0.04,-0.07,-0.25,0.26
0.021261930465698242,0.06,0.25,-0.27,0.37
0.06982207298278809,0.19,0.2,-0.16,0.31
0.07277178764343262,0.13,0.12,0.04,0.18
0.07487988471984863,-0.01,0.08,0.04,0.09
0.07843184471130371,-0.06,0.05,0.05,0.09
0.0822761058807373,-0.07,0.04,0.02,0.08
0.08441400527954102,-0.05,0.04,-0.02,0.06
0.09814095497131348,-0.02,0.02,0.01,0.03
0.10041308403015137,-0.04,0.02,0.08,0.09
0.11063885688781738,-0.03,0.01,0.13,0.13
0.12078595161437988,0.0,0.0,0.13,0.13
0.166795015335083,0.01,0.0,0.07,0.07
0.16957402229309082,-0.02,0.02,0.06,0.06
0.17184090614318848,-0.07,0.05,0.0,0.08
0.17557311058044434,-0.05,0.09,-0.01,0.1
0.17955708503723145,0.13,0.25,0.09,0.29
0.18183398246765137,0.25,0.52,0.25,0.62
0.18979096412658691,-0.32,0.27,-0.02,0.41
0.20016980171203613,-0.39,-0.59,0.01,0.7
0.2096419334411621,-0.17,-0.54,0.34,0.66
0.21982598304748535,0.1,-0.09,0.5,0.51
0.26730799674987793,0.25,0.07,0.3,0.39
0.2703840732574463,0.11,0.46,-0.12,0.48
0.2726600170135498,0.07,0.51,0.13,0.53
0.27641797065734863,-0.19,0.33,0.18,0.42
0.2805650234222412,-0.58,0.21,0.8,1.01
0.28317904472351074,-0.82,-0.05,0.94,1.24
0.2890489101409912,-0.66,-0.13,1.01,1.21
0.29909205436706543,-0.36,0.09,0.75,0.83
0.30918097496032715,-0.31,0.49,0.53,0.78
0.3190419673919678,-0.26,0.66,0.51,0.87
0.3660929203033447,-0.06,0.44,0.43,0.61
0.3686540126800537,0.08,0.1,0.2,0.23
0.37225890159606934,0.0,-0.06,0.03,0.06
0.3763301372528076,-0.08,-0.1,0.05,0.13
0.3802621364593506,0.0,-0.1,0.11,0.14
0.38245391845703125,0.11,0.02,0.08,0.13
0.3883631229400635,0.12,0.22,0.0,0.25
0.398547887802124,0.16,0.36,-0.03,0.39
0.40856289863586426,0.11,0.41,-0.08,0.43
0.4184699058532715,0.02,0.22,0.08,0.23
0.4710109233856201,-0.34,0.13,0.31,0.47
0.4734349250793457,-0.87,0.27,0.74,1.17
0.47596096992492676,-1.25,0.48,0.89,1.6
0.4805419445037842,-1.2,0.51,0.9,1.58
0.4830019474029541,-0.85,0.39,0.67,1.15
0.48651790618896484,-0.55,0.44,0.4,0.81
0.48955392837524414,-0.16,0.62,0.62,0.89
0.4979870319366455,0.35,0.5,0.96,1.13
0.5075910091400146,0.85,0.04,0.83,1.18
0.5178630352020264,0.81,-0.17,0.3,0.88
0.5709209442138672,0.34,0.08,0.23,0.41
0.5735499858856201,-0.2,0.6,0.55,0.83
0.5758309364318848,-0.26,0.7,0.81,1.1
0.5795619487762451,0.25,0.19,0.77,0.83
0.5818870067596436,0.41,-0.23,0.28,0.54
0.5853939056396484,-0.12,-0.4,-0.21,0.46
0.5894448757171631,-1.07,-0.36,-0.32,1.17
0.5971260070800781,-1.73,-0.21,-0.28,1.76
0.6072380542755127,-1.91,0.2,-0.91,2.12
0.6169350147247314,-1.87,0.69,-2.3,3.04
0.66998291015625,-1.32,0.73,-2.71,3.1
0.672569990158081,-0.49,0.43,-1.59,1.71
0.6748759746551514,0.25,0.03,-0.33,0.41
0.6787319183349609,0.53,-0.33,0.15,0.64
0.6816549301147461,0.52,-0.48,0.14,0.72
0.6838870048522949,0.67,-0.36,0.4,0.85
0.6993429660797119,0.97,-0.1,0.59,1.13
0.7017509937286377,1.37,0.14,0.38,1.42
0.7062859535217285,1.68,0.01,0.09,1.68
0.7161879539489746,1.68,-0.05,-0.48,1.74
0.7688169479370117,1.55,0.14,-1.13,1.92
0.7712469100952148,1.5,0.27,-1.66,2.25
0.7735159397125244,1.58,0.2,-1.95,2.51
0.7774660587310791,1.65,0.14,-1.57,2.28
0.7809340953826904,1.62,0.15,-0.89,1.85
0.7835509777069092,1.36,0.23,-0.61,1.5
0.7997391223907471,0.81,0.15,-0.5,0.96
0.8022029399871826,0.48,-0.09,-0.22,0.53
0.8058099746704102,0.23,-0.21,-0.01,0.31
0.8154728412628174,-0.09,-0.03,0.02,0.09
0.8257510662078857,-0.35,0.26,-0.16,0.46
0.8736541271209717,-0.64,0.31,-0.42,0.82
0.8767910003662109,-0.85,0.16,-0.69,1.1
0.8790969848632812,-0.77,-0.12,-0.77,1.09
0.8824059963226318,-0.68,-0.32,-0.58,0.94
0.8862278461456299,-0.75,-0.1,-0.31,0.81
0.8904340267181396,-0.98,0.21,-0.07,1.0
0.8950169086456299,-1.35,0.11,0.04,1.35
0.9054129123687744,-1.71,-0.36,0.23,1.76
0.9148919582366943,-2.19,-0.9,0.46,2.41
0.9249618053436279,-2.85,-1.05,0.21,3.04
0.9734470844268799,-2.89,-0.56,-0.34,2.96
0.976377010345459,-1.94,0.2,-0.62,2.04
0.978691816329956,-0.69,0.52,-0.24,0.89
0.9822938442230225,0.11,0.28,-0.04,0.3
0.9853360652923584,0.42,-0.02,-0.22,0.47
0.9890649318695068,0.36,-0.05,-0.22,0.42
0.9945559501647949,0.11,-0.01,0.2,0.22
1.004403829574585,-0.37,-0.14,0.75,0.84
1.0143358707427979,-0.93,-0.39,0.34,1.06
1.0245399475097656,-1.23,-0.63,-0.29,1.41
1.0728819370269775,-0.88,-0.94,-0.44,1.36
1.0758287906646729,0.13,-1.08,0.36,1.14
1.0781660079956055,1.21,-0.76,0.45,1.49
1.0804340839385986,1.81,-0.17,-0.24,1.83
1.0838038921356201,2.01,0.17,-1.08,2.28
1.087852954864502,2.09,-0.22,-1.22,2.42
1.0935719013214111,1.87,-1.04,-0.69,2.24
1.104327917098999,0.94,-1.75,-0.05,1.98
1.113713026046753,-0.22,-2.5,0.05,2.51
1.1238038539886475,-1.17,-3.33,0.18,3.53
1.1729040145874023,-1.44,-4.18,-0.22,4.42
1.1759850978851318,-0.9,-4.79,-0.39,4.88
1.1783299446105957,0.05,-5.28,-0.34,5.29
1.1815199851989746,0.82,-6.16,-0.52,6.23
1.1839978694915771,1.56,-7.54,-0.69,7.73
1.2000319957733154,2.03,-8.54,0.15,8.77
1.202491044998169,1.71,-8.56,1.35,8.83
1.2062427997589111,0.3,-7.88,2.23,8.19
1.2131149768829346,-1.5,-7.58,1.83,7.94
1.2233610153198242,-3.88,-5.77,1.58,7.13
1.2764029502868652,-7.02,-2.8,0.99,7.62
1.2795989513397217,-9.04,-2.68,-0.21,9.43
1.2820580005645752,-9.64,-5.96,-0.94,11.37
1.2859649658203125,-8.94,-10.66,-0.14,13.91
1.2887599468231201,-6.38,-12.55,1.46,14.15
1.291801929473877,-2.01,-11.71,0.81,11.9
1.2957689762115479,2.12,-11.2,-1.9,11.55
1.3021790981292725,3.19,-11.09,-4.88,12.52
1.3122529983520508,2.85,-10.71,-5.48,12.36
1.322540044784546,3.21,-9.63,-3.77,10.82
1.3766720294952393,3.32,-8.62,-3.98,10.05
1.3797199726104736,4.38,-8.85,-4.0,10.65
1.382045030593872,5.97,-9.46,-3.81,11.81
1.3859498500823975,6.61,-9.42,-3.15,11.93
1.3899548053741455,5.63,-8.8,-1.16,10.51
1.3940439224243164,2.88,-7.93,0.55,8.45
1.397495985031128,-0.85,-6.65,1.36,6.84
1.4015448093414307,-4.85,-4.88,2.5,7.32
1.4116628170013428,-8.39,-2.82,2.99,9.34
1.4214880466461182,-11.31,-0.2,3.33,11.79
1.4771020412445068,-13.13,2.74,3.89,13.96
1.4812839031219482,-13.79,5.05,4.44,15.34
1.4840128421783447,-13.75,6.87,4.61,16.04
1.4881551265716553,-13.21,8.25,3.71,16.01
1.492460012435913,-12.37,9.14,2.2,15.53
1.4962351322174072,-11.88,9.76,1.89,15.49
1.498567819595337,-11.51,9.8,1.67,15.2
1.5024487972259521,-10.76,9.13,1.27,14.16
1.51078200340271,-10.11,8.43,1.01,13.2
1.5211379528045654,-9.46,8.19,0.93,12.54
1.5764479637145996,-8.89,8.25,0.86,12.15
1.5794439315795898,-8.35,8.51,1.02,11.96
1.5817720890045166,-7.76,8.93,0.92,11.86
1.585900068283081,-7.15,9.01,0.73,11.52
1.5899708271026611,-6.42,9.18,0.07,11.2
1.5940158367156982,-5.46,9.59,-0.67,11.05
1.5975489616394043,-4.17,10.08,-1.57,11.02
1.6005208492279053,-2.69,10.32,-1.03,10.71
1.6104209423065186,-0.76,10.3,-0.2,10.32
1.6201708316802979,1.4,10.04,0.08,10.13
1.6301558017730713,3.52,9.61,-0.47,10.24
1.6801040172576904,5.19,9.11,-1.56,10.6
1.6826279163360596,6.32,8.22,-2.37,10.63
1.6848819255828857,7.57,6.69,-2.48,10.4
1.688694953918457,8.88,4.79,-2.62,10.42
1.691622018814087,9.43,3.4,-2.58,10.35
1.6956980228424072,9.03,4.01,-2.77,10.26
1.7000279426574707,8.45,6.27,-3.48,11.08
1.7097208499908447,8.42,8.44,-5.5,13.12
1.7198131084442139,8.17,9.48,-14.58,19.21
1.7294747829437256,9.77,3.22,-27.45,29.31
1.7746241092681885,17.37,-41.09,-17.42,47.89
1.7771339416503906,17.73,-64.36,16.7,68.81
1.7794489860534668,7.05,-18.82,34.38,39.82
1.7828609943389893,-0.26,0.68,-3.99,4.05
1.7869470119476318,-5.04,9.62,-24.77,27.04
1.7910988330841064,-8.04,17.8,-11.22,22.52
1.799191951751709,-8.13,21.14,9.81,24.68
1.809046983718872,-7.61,17.0,12.18,22.25
1.8189969062805176,-7.79,8.31,3.35,11.87
1.8289458751678467,-5.98,-5.2,-0.62,7.94
1.875093936920166,0.57,-21.39,-3.08,21.61
1.8777329921722412,8.47,-15.42,-0.33,17.59
1.8810560703277588,12.94,-2.04,-0.31,13.1
1.883918046951294,14.15,3.58,-3.88,15.1
1.8871259689331055,10.12,5.42,-2.18,11.68
1.8910739421844482,4.73,5.4,-0.36,7.18
1.8986527919769287,1.46,2.48,-1.84,3.41
1.908141851425171,0.03,-0.99,-2.32,2.52
1.918079137802124,-0.71,-2.41,-0.72,2.61
1.9286839962005615,-1.26,-1.54,0.2,1.99
1.9735767841339111,-1.67,-0.15,-0.09,1.67
1.9761550426483154,-2.06,0.52,0.21,2.13
1.9798638820648193,-2.38,0.54,0.59,2.51
1.9822909832000732,-2.49,0.2,0.75,2.6
1.9862101078033447,-2.14,-0.17,0.13,2.15
1.9902088642120361,-1.28,-0.1,-0.22,1.3
1.9975759983062744,-0.45,0.37,-0.02,0.58
2.00774884223938,-0.07,0.79,0.22,0.82
2.017465829849243,-0.1,0.99,0.18,1.01
2.0275380611419678,-0.55,1.05,0.0,1.18
2.0791659355163574,-1.2,1.07,0.2,1.62
2.081594944000244,-1.69,0.67,0.94,2.04
2.085110902786255,-1.91,-0.16,1.59,2.49
2.089211940765381,-2.43,-0.69,1.56,2.96
2.093233823776245,-3.08,-0.93,0.92,3.34
2.097792863845825,-3.41,-1.01,0.46,3.58
2.1001319885253906,-2.94,-0.61,0.73,3.09
2.106841802597046,-2.02,-0.06,0.84,2.18
2.1168301105499268,-1.3,-0.04,0.85,1.55
2.1268861293792725,-1.23,-1.08,0.45,1.69
2.178025007247925,-2.28,-2.34,-0.23,3.27
2.1811769008636475,-3.0,-2.17,-1.24,3.9
2.1836750507354736,-2.35,-1.2,-1.2,2.89
2.186976909637451,-1.19,-1.01,-0.65,1.69
2.1910970211029053,-0.16,-1.54,-1.26,1.99
2.195197820663452,1.1,-2.43,-0.82,2.79
2.1982150077819824,2.32,-3.47,0.37,4.19
2.206048011779785,2.36,-3.98,0.77,4.69
2.2160041332244873,1.27,-4.12,0.2,4.31
2.226388931274414,-0.01,-4.58,-0.04,4.58
2.277338981628418,-1.01,-5.42,-0.12,5.51
2.2809650897979736,-1.32,-6.47,0.43,6.61
2.2833688259124756,-0.77,-8.39,1.07,8.49
2.2868897914886475,0.01,-11.33,1.86,11.48
2.2908740043640137,0.97,-14.71,2.2,14.9
2.294950008392334,1.1,-15.98,2.56,16.22
2.298430919647217,-1.2,-12.16,2.14,12.4
2.3054769039154053,-5.45,-3.61,0.28,6.54
2.3160269260406494,-9.18,2.56,-1.76,9.69
2.3255770206451416,-9.58,0.09,-4.73,10.68
2.377156972885132,-7.36,-8.7,-5.55,12.67
2.3801300525665283,-6.29,-16.82,-2.73,18.16
2.3824961185455322,-7.31,-17.33,0.34,18.81
2.3866851329803467,-6.91,-12.46,-0.61,14.26
2.3907930850982666,-4.22,-8.79,-3.49,10.35
2.394901990890503,-0.93,-7.61,-3.87,8.58
2.3983469009399414,0.98,-7.23,-3.8,8.22
2.4046919345855713,2.71,-6.54,-4.21,8.23
2.4155638217926025,4.73,-5.63,-4.57,8.65
2.424907922744751,6.44,-4.27,-3.88,8.64
2.4353699684143066,7.25,-2.96,-2.61,8.25
2.4810879230499268,6.22,-2.38,-1.88,6.92
2.4836649894714355,3.58,-2.39,-1.89,4.7
2.487245798110962,0.76,-2.25,-1.08,2.6
2.491318941116333,-1.83,-1.65,0.84,2.6
2.495271921157837,-4.3,-0.56,2.04,4.79
2.4983229637145996,-6.96,0.77,2.47,7.42
2.5040628910064697,-9.6,2.22,2.94,10.28
2.5167739391326904,-11.57,4.06,3.1,12.64
2.5239059925079346,-12.19,6.24,2.7,13.95
2.5343170166015625,-11.56,8.24,2.08,14.34
2.581605911254883,-10.62,9.57,2.11,14.45
2.584216833114624,-9.87,10.07,2.44,14.3
2.5865859985351562,-9.19,9.89,2.34,13.7
2.5901877880096436,-8.83,9.62,2.51,13.29
2.594183921813965,-8.17,8.95,2.26,12.32
2.5970051288604736,-7.56,8.48,2.42,11.61
2.6034600734710693,-7.33,8.53,2.38,11.49
2.6132991313934326,-7.15,8.78,2.21,11.53
2.623668909072876,-6.77,9.1,2.07,11.52
2.6334009170532227,-6.07,9.37,1.93,11.32
2.6805779933929443,-5.25,9.57,1.68,11.04
2.6830649375915527,-4.36,9.81,1.64,10.85
2.685373067855835,-3.01,9.91,1.83,10.51
2.689154863357544,-1.18,9.71,1.99,9.98
2.693186044692993,1.12,9.32,1.88,9.57
2.6970229148864746,3.62,8.9,1.3,9.69
2.702868938446045,6.05,8.55,0.24,10.47
2.712855100631714,8.04,7.71,-0.43,11.14
2.722754955291748,9.44,6.45,-0.91,11.46
2.732714891433716,9.92,5.01,-0.98,11.15
2.780505895614624,9.58,4.45,-0.78,10.59
2.783154010772705,9.06,5.46,-0.72,10.6
2.785486936569214,8.65,7.34,-1.81,11.48
2.7892189025878906,8.76,8.65,-11.67,16.96
2.7930409908294678,14.33,2.1,-28.27,31.76
2.7970190048217773,28.04,-37.05,-17.35,49.59
2.8026249408721924,17.29,-49.2,21.49,56.4
2.8120479583740234,0.24,-10.36,26.37,28.33
2.8223819732666016,-3.56,4.2,-11.66,12.89
2.8320019245147705,-10.1,8.56,-22.3,25.93
2.8849949836730957,-12.4,12.18,-3.17,17.66
2.8874881267547607,-6.5,13.43,8.38,17.11
2.889791965484619,-1.22,11.0,7.63,13.44
2.893744945526123,-0.3,5.52,1.07,5.63
2.8981950283050537,-0.3,-3.34,-0.38,3.37
2.900376081466675,2.61,-14.51,1.65,14.83
2.9040799140930176,6.88,-12.64,0.25,14.39
2.911249876022339,9.46,-1.8,-2.37,9.91
2.921592950820923,8.94,2.28,-3.06,9.72
2.931330919265747,4.85,2.96,-1.48,5.87
2.9852099418640137,1.42,2.71,-0.76,3.15
2.9876577854156494,0.51,0.78,-1.49,1.75
2.9899849891662598,0.73,-1.14,-1.77,2.22
2.993757963180542,0.83,-1.89,-0.67,2.17
2.998347043991089,0.32,-1.4,-0.13,1.44
3.000744104385376,-0.58,-0.81,-0.32,1.04
3.004323959350586,-1.17,-0.72,-0.26,1.39
3.0105679035186768,-1.42,-0.61,-0.52,1.63
3.0209639072418213,-1.29,-0.51,-0.66,1.53
3.030592918395996,-0.74,-0.74,-1.01,1.45
3.0841901302337646,-0.11,-0.92,-1.21,1.52
3.0867698192596436,0.03,-0.67,-1.06,1.25
3.08905291557312,-0.02,-0.15,-0.86,0.87
3.092834949493408,-0.24,0.27,-0.41,0.54
3.0968809127807617,-0.65,0.55,0.34,0.91
3.099281072616577,-1.21,0.81,0.67,1.6
3.1025969982147217,-1.78,1.06,1.01,2.3
3.109888792037964,-2.28,1.03,1.29,2.81
3.1202659606933594,-2.48,0.89,1.16,2.87
3.1297860145568848,-2.38,0.9,0.62,2.61
3.1842899322509766,-1.96,0.85,0.54,2.2
3.186889886856079,-1.61,0.64,0.93,1.96
3.190516948699951,-1.7,0.44,0.97,2.0
3.19461989402771,-2.0,0.32,0.26,2.04
3.1971728801727295,-2.3,0.09,-0.45,2.34
3.1998441219329834,-2.4,-0.19,-0.02,2.4
3.203032970428467,-1.94,-0.54,0.84,2.18
3.209199905395508,-1.43,-0.67,0.54,1.66
3.219686985015869,-1.13,-0.89,-0.8,1.64
3.2294371128082275,-0.82,-1.65,-0.9,2.05
3.2395479679107666,-0.89,-2.3,0.04,2.46
3.2879929542541504,-0.8,-2.45,0.15,2.58
3.2909770011901855,-0.18,-2.83,0.03,2.83
3.2931787967681885,0.11,-3.83,-0.34,3.84
3.297003984451294,0.23,-5.13,-0.65,5.17
3.2993459701538086,0.88,-6.6,-0.35,6.66
3.3033719062805176,1.59,-7.96,0.13,8.11
3.30856990814209,2.2,-9.31,0.45,9.57
3.318769931793213,2.77,-11.18,1.61,11.63
3.3292338848114014,3.12,-12.48,2.19,13.04
3.338810920715332,1.51,-11.71,3.76,12.39
3.388882875442505,-2.74,-9.01,3.83,10.16
3.391853094100952,-7.43,-6.21,1.55,9.8
3.3941118717193604,-9.66,-5.45,-1.07,11.14
3.3977367877960205,-9.63,-6.42,-2.23,11.78
3.400078058242798,-8.84,-7.2,-0.98,11.44
3.4040958881378174,-6.81,-9.14,0.03,11.39
3.4079089164733887,-5.72,-11.82,-0.73,13.15
3.4192841053009033,-6.77,-13.16,-2.78,15.05
3.4284708499908447,-6.97,-13.48,-3.63,15.6
3.4378819465637207,-4.97,-12.8,-2.78,14.0
3.487534999847412,-2.37,-10.1,-2.18,10.6
3.490494966506958,-0.81,-7.62,-2.32,8.0
3.4928159713745117,0.0,-6.03,-3.52,6.98
3.49635910987854,1.1,-4.3,-5.59,7.13
3.4999709129333496,3.14,-2.84,-7.66,8.75
3.5022060871124268,5.62,-2.09,-5.94,8.44
3.5179219245910645,7.58,-1.82,-1.03,7.86
3.5203299522399902,7.22,-1.28,1.92,7.57
3.52703595161438,4.22,-0.68,1.18,4.43
3.537033796310425,0.84,-0.44,0.28,0.98
3.5866079330444336,-2.33,0.07,0.76,2.45
3.58902907371521,-5.6,1.38,2.52,6.29
3.5925490856170654,-8.75,3.23,3.76,10.05
3.596595048904419,-11.24,5.21,3.7,12.92
3.600250005722046,-12.6,7.15,3.26,14.84
3.602452039718628,-12.74,8.97,2.8,15.83
3.6176939010620117,-11.93,10.36,2.53,16.0
3.620124101638794,-10.6,10.79,2.67,15.35
3.626457929611206,-9.22,10.43,3.16,14.27
3.636850118637085,-8.13,9.59,2.99,12.92
3.6923820972442627,-7.3,8.8,2.56,11.71
3.6948649883270264,-7.04,8.43,2.62,11.29
3.6974260807037354,-6.72,8.07,2.31,10.75
3.699836015701294,-6.45,8.37,2.15,10.78
3.7030160427093506,-6.33,9.48,2.2,11.6
3.706983804702759,-6.1,10.05,1.82,11.89
3.7109479904174805,-6.0,9.89,1.86,11.71
3.7160539627075195,-5.5,9.59,1.87,11.21
3.7260420322418213,-4.1,9.38,0.85,10.27
3.7356579303741455,-2.36,9.26,0.22,9.55
3.791534900665283,0.12,8.92,0.44,8.93
3.7939560413360596,3.15,8.34,0.17,8.91
3.7985730171203613,6.3,7.56,-0.97,9.88
3.800964117050171,8.89,6.56,-2.48,11.32
3.804659128189087,10.26,5.5,-3.29,12.09
3.8087708950042725,10.33,4.77,-2.83,11.72
3.8128929138183594,9.38,4.69,-1.89,10.65
3.815890073776245,8.13,5.16,-1.18,9.7
3.8253839015960693,7.13,5.88,-4.4,10.23
3.8352530002593994,8.65,6.47,-17.65,20.69
3.891103982925415,18.68,-0.79,-24.79,31.05
3.8942620754241943,29.92,-31.8,-0.47,43.66
3.8965771198272705,14.12,-39.38,25.35,48.91
3.8988900184631348,-0.36,-11.25,14.33,18.22
3.902740955352783,-5.33,2.99,-13.38,14.7
3.9068119525909424,-10.38,8.31,-16.22,20.97
3.910862922668457,-10.44,11.72,-3.95,16.18
3.9153430461883545,-4.66,12.11,1.45,13.05
3.9243838787078857,0.57,8.31,7.85,11.44
3.934647798538208,1.58,1.58,6.16,6.55
3.9909589290618896,-0.34,-7.8,2.33,8.14
3.993431806564331,0.46,-11.77,-0.24,11.78
3.99580979347229,3.84,-4.36,-1.75,6.06
3.999169111251831,6.76,1.18,-2.69,7.37
4.00180983543396,7.98,2.4,-2.97,8.84
4.005842924118042,6.47,2.37,-1.26,7.0
4.009907007217407,4.43,1.64,-1.06,4.84
4.013978004455566,3.2,0.14,-1.74,3.64
4.023967981338501,2.14,-0.83,-1.72,2.86
4.033786058425903,0.93,-0.58,-1.0,1.48
4.044022798538208,0.14,0.1,-0.55,0.57
4.095045804977417,-0.41,0.41,-0.11,0.59
4.09865403175354,-0.62,0.3,0.38,0.78
4.10130500793457,-0.56,-0.19,0.03,0.59
4.104562997817993,-0.43,-0.73,-0.3,0.89
4.108607053756714,-0.33,-1.02,-0.7,1.28
4.112618923187256,-0.3,-0.94,-0.85,1.3
4.115837812423706,-0.48,-0.51,-0.91,1.14
4.1230809688568115,-0.83,-0.01,-1.32,1.55
4.13304591178894,-1.21,0.47,-1.22,1.78
4.143244981765747,-1.59,0.76,-0.25,1.77
4.194204092025757,-1.89,0.95,0.83,2.27
4.19720196723938,-2.0,1.02,1.53,2.71
4.199499845504761,-1.8,0.9,1.64,2.59
4.201872110366821,-1.66,0.55,1.64,2.39
4.216953992843628,-1.64,-0.2,1.8,2.44
4.2193968296051025,-2.56,-0.87,2.05,3.39
4.223467111587524,-3.56,-0.95,1.45,3.95
4.227564096450806,-3.78,-0.4,0.74,3.87
4.23234486579895,-3.02,0.42,0.43,3.07
4.242347002029419,-1.83,0.81,0.45,2.05
4.293976068496704,-0.98,0.57,0.23,1.15
4.2969701290130615,-0.48,0.04,0.03,0.48
4.2992730140686035,-0.19,-0.21,-0.55,0.61
4.302680015563965,-0.06,-0.58,-0.8,0.98
4.318987131118774,-0.18,-1.43,-0.38,1.49
4.321445941925049,-0.29,-2.21,-0.43,2.27
4.325190782546997,-0.35,-2.68,-0.15,2.7
4.32933783531189,-0.55,-2.86,0.0,2.91
4.332442045211792,-0.53,-2.96,-0.24,3.01
4.341809988021851,-0.29,-2.99,-0.18,3.0
4.395748853683472,-0.09,-3.23,-0.54,3.27
4.398843050003052,0.41,-5.1,-0.41,5.13
4.401631116867065,0.8,-8.05,0.7,8.11
4.404886960983276,0.1,-8.99,1.31,9.08
4.4089438915252686,-1.19,-7.87,1.59,8.11
4.413057088851929,-2.48,-7.68,1.15,8.15
4.416013956069946,-3.2,-9.75,1.7,10.4
4.421406984329224,-3.19,-10.96,2.2,11.62
4.433443784713745,-3.87,-9.27,2.28,10.3
4.441257953643799,-5.73,-6.99,1.21,9.11
4.496930837631226,-7.67,-6.37,-0.51,9.98
4.5000159740448,-8.19,-7.51,-1.84,11.26
4.502295017242432,-6.99,-9.68,-1.82,12.07
4.505871057510376,-5.86,-11.79,-0.86,13.19
4.509866952896118,-5.99,-13.1,-0.33,14.4
4.5138959884643555,-6.44,-13.5,-0.48,14.96
4.517741918563843,-5.82,-13.4,-0.75,14.62
4.5204150676727295,-2.53,-11.74,-0.6,12.02
4.533528089523315,0.0,-9.48,-2.11,9.71
4.540316820144653,1.74,-8.18,-3.99,9.26
4.597315073013306,3.7,-7.37,-6.43,10.45
4.600507974624634,5.9,-6.24,-8.15,11.83
4.6028149127960205,8.33,-4.61,-5.79,11.14
4.606526136398315,10.45,-3.2,-0.84,10.96
4.6104419231414795,10.06,-2.11,1.16,10.34
4.614531993865967,6.85,-1.54,-0.71,7.05
4.617003917694092,3.06,-1.3,-1.51,3.65
4.619839906692505,-0.41,-0.83,0.79,1.21
4.629828929901123,-3.75,0.39,3.86,5.39
4.640007019042969,-7.03,2.23,5.22,9.03
4.697220087051392,-10.08,4.01,4.95,11.92
4.700124979019165,-12.44,5.87,4.41,14.44
4.7023539543151855,-14.0,7.95,4.05,16.6
4.706086874008179,-14.62,10.07,4.17,18.23
4.710129022598267,-14.11,11.6,4.17,18.73
4.71294093132019,-12.81,12.02,3.98,18.01
4.716234922409058,-11.32,11.4,3.66,16.47
4.719084024429321,-9.94,10.21,2.99,14.55
4.734742879867554,-8.94,9.06,2.57,12.98
4.739138841629028,-8.39,8.42,2.68,12.18
4.7957940101623535,-7.86,8.14,2.51,11.59
4.799001932144165,-6.73,8.27,1.62,10.78
4.801634073257446,-5.7,8.9,1.6,10.68
4.804918050765991,-4.86,9.6,1.74,10.89
4.807830095291138,-3.97,9.89,1.8,10.8
4.811891794204712,-2.98,9.98,1.88,10.58
4.815922021865845,-2.11,10.18,1.68,10.53
4.818405866622925,-1.54,10.4,1.2,10.58
4.828468084335327,-0.86,10.25,0.65,10.3
4.8383119106292725,-0.1,9.51,0.31,9.51
4.848433971405029,0.76,8.43,0.57,8.48
4.901384115219116,2.03,7.05,1.25,7.44
4.903939962387085,3.96,5.01,1.19,6.49
4.906209945678711,5.93,2.36,0.82,6.43
4.909981966018677,7.57,-0.2,0.62,7.59
4.913964033126831,8.7,-1.11,-0.09,8.77
4.917578935623169,9.17,-0.18,-0.92,9.21
4.9197728633880615,9.52,1.42,-1.23,9.7
4.9353320598602295,9.89,2.98,-0.9,10.36
4.937737941741943,9.95,4.42,-0.48,10.89
4.947516918182373,9.47,5.53,-0.94,11.0
5.0008039474487305,8.75,-1.09,-7.27,11.42
5.003282785415649,8.15,-48.65,-25.38,55.47
5.005616903305054,4.26,-47.85,-24.89,54.1
5.009246110916138,7.13,1.43,29.72,30.59
5.013128995895386,1.28,7.21,30.52,31.38
5.01632285118103,-2.56,8.56,-2.62,9.31
5.018908977508545,-8.14,12.6,-13.64,20.27
5.035520792007446,-10.13,17.3,-12.44,23.59
5.037975072860718,-4.3,15.16,-6.55,17.06
5.046765089035034,4.66,1.71,4.86,6.94
5.100343942642212,10.78,-20.02,5.65,23.42
5.102813959121704,7.73,-22.79,2.12,24.15
5.1051270961761475,3.72,-2.64,0.62,4.6
5.108815908432007,3.73,7.37,-2.91,8.75
5.111562013626099,4.31,6.71,-2.46,8.34
5.116038084030151,3.23,4.26,-0.83,5.41
5.11856484413147,1.48,1.21,0.44,1.96
5.12614893913269,1.51,-2.3,0.3,2.76
5.136431932449341,2.4,-3.45,-0.61,4.24
5.146651029586792,2.47,-1.38,-0.69,2.91
5.20029091835022,1.74,0.87,-0.79,2.09
5.202737092971802,1.02,1.51,-0.68,1.94
5.206389904022217,0.51,1.13,-0.04,1.24
5.210429906845093,0.76,0.11,0.46,0.89
5.214545965194702,1.19,-1.22,0.05,1.7
5.216807126998901,1.12,-1.8,-1.21,2.44
5.220854997634888,0.47,-1.1,-2.19,2.49
5.225562810897827,-0.33,0.11,-2.12,2.14
5.236018896102905,-0.82,0.73,-1.12,1.56
5.245529890060425,-1.16,0.68,-0.27,1.37
5.304584980010986,-1.49,0.19,-0.25,1.52
5.3071630001068115,-1.77,-0.25,-0.54,1.86
5.310775995254517,-1.81,-0.16,-0.21,1.82
5.314808130264282,-1.63,0.52,0.32,1.74
5.317075967788696,-1.46,0.93,0.67,1.85
5.320986986160278,-1.52,0.77,0.87,1.91
5.325042009353638,-1.73,0.4,1.09,2.08
5.329118967056274,-1.63,0.14,1.0,1.91
5.335087060928345,-1.26,0.06,0.77,1.47
5.3452980518341064,-1.16,-0.06,0.72,1.36
5.4046690464019775,-1.88,-0.4,0.66,2.03
5.407113790512085,-2.71,-0.27,0.01,2.72
5.410621881484985,-2.82,0.4,-0.34,2.86
5.414734125137329,-2.52,0.79,-0.11,2.64
5.417011976242065,-2.18,0.62,-0.02,2.26
5.421097993850708,-2.0,0.09,-0.08,2.0
5.425010919570923,-1.79,-0.41,0.05,1.83
5.429159879684448,-1.56,-0.61,0.15,1.68
5.4343039989471436,-1.74,-0.76,0.41,1.94
5.4440600872039795,-2.05,-1.18,-0.06,2.36
5.503554105758667,-1.83,-1.63,-0.18,2.45
5.506549119949341,-1.01,-1.89,0.27,2.15
5.508765935897827,-0.1,-1.99,0.76,2.13
5.517842054367065,0.54,-1.81,0.6,1.98
5.520221948623657,1.07,-1.68,0.32,2.01
5.5238940715789795,1.13,-1.57,0.0,1.93
5.527853012084961,0.52,-1.64,0.07,1.72
5.531728982925415,-0.47,-1.92,0.03,1.97
5.534088850021362,-1.63,-2.36,0.17,2.87
5.543379068374634,-2.61,-2.9,0.53,3.93
5.603446006774902,-3.07,-3.37,0.93,4.65
5.606355905532837,-3.01,-3.52,0.9,4.71
5.608565092086792,-2.75,-3.47,1.14,4.57
5.619703054428101,-2.23,-3.89,1.65,4.77
5.622125864028931,-1.97,-4.81,2.06,5.59
5.625556945800781,-2.49,-5.99,2.16,6.83
5.629677057266235,-3.78,-7.95,2.31,9.1
5.633242845535278,-5.31,-11.26,2.38,12.67
5.635574102401733,-7.05,-14.99,2.15,16.7
5.643141031265259,-9.03,-16.75,2.09,19.14
5.652878046035767,-9.76,-14.74,1.54,17.74
5.707727909088135,-8.77,-10.63,1.45,13.85
5.710200071334839,-6.58,-6.93,1.43,9.66
5.7138588428497314,-3.81,-4.67,-0.04,6.02
5.7176690101623535,-1.92,-3.4,-0.53,3.94
5.719940900802612,-0.83,-2.31,-0.66,2.54
5.735903978347778,-0.38,-0.78,-0.9,1.25
5.738332033157349,-0.22,1.01,-1.27,1.63
5.742459058761597,-0.29,2.13,-1.19,2.45
5.7466089725494385,-0.28,3.18,-1.17,3.39
5.751971960067749,0.1,4.34,-0.52,4.37
5.807461977005005,0.45,5.02,0.83,5.1
5.8103368282318115,0.19,5.49,2.92,6.22
5.812650918960571,-0.59,5.84,4.21,7.22
5.816515922546387,-1.55,5.92,3.96,7.28
5.8192198276519775,-2.88,5.56,3.1,6.98
5.822471857070923,-4.07,4.94,2.89,7.02
5.826491117477417,-5.01,4.67,3.79,7.82
5.831495046615601,-5.86,4.85,4.98,9.09
5.841468095779419,-6.54,5.11,5.68,10.05
5.851483106613159,-6.93,5.15,5.65,10.31
5.908298969268799,-6.91,4.84,5.01,9.81
5.910949945449829,-6.51,4.4,4.46,9.03
5.913274049758911,-5.58,3.81,4.7,8.23
5.916801929473877,-4.19,2.95,5.36,7.41
5.919367074966431,-2.71,1.79,6.09,6.9
5.923414945602417,-1.22,0.55,5.99,6.13
5.927485942840576,0.11,0.03,5.08,5.08
5.931412935256958,1.21,0.26,3.79,3.98
5.9406750202178955,2.29,0.53,2.65,3.54
5.950723886489868,4.02,0.21,1.66,4.35
6.007925987243652,5.99,-0.55,0.79,6.06
6.010445833206177,7.61,-1.37,0.25,7.73
6.012768983840942,8.26,-1.95,-0.09,8.48
6.016680955886841,7.66,-2.18,-0.46,7.97
6.019442796707153,6.3,-2.25,-0.51,6.7
6.022655010223389,5.0,-2.59,-0.89,5.7
6.025593996047974,4.86,-3.63,-1.47,6.24
6.03013801574707,5.72,-4.78,-2.11,7.74
6.0405189990997314,6.89,-4.8,-2.58,8.78
6.050148963928223,7.59,-3.97,-1.72,8.73
6.112389802932739,7.57,-3.71,0.27,8.43
6.11502480506897,7.9,-5.12,2.93,9.85
6.117312908172607,8.07,-5.78,4.56,10.92
6.121375799179077,7.55,-5.13,5.46,10.63
6.124354124069214,6.44,-4.23,5.6,9.52
6.1284339427948,5.52,-3.92,4.69,8.23
6.132386922836304,5.47,-4.4,1.89,7.27
6.134964942932129,4.08,-5.73,-1.53,7.19
6.1394288539886475,-2.76,-6.18,-2.28,7.14
6.149474859237671,-9.78,-5.38,0.82,11.19
6.2119410037994385,-10.05,-3.63,3.6,11.27
6.214515924453735,-3.05,-0.61,3.32,4.54
6.216754913330078,3.61,1.8,1.86,4.44
6.220021963119507,7.88,1.88,1.33,8.2
6.2361900806427,9.8,1.01,1.45,9.95
6.238595008850098,7.77,0.97,1.64,8.0
6.24233078956604,3.24,1.72,0.55,3.7
6.246454954147339,-0.63,2.15,-2.89,3.65
6.249682903289795,-2.53,1.61,-6.93,7.55
6.25319504737854,-1.98,0.48,-6.98,7.27
6.311595916748047,0.38,-0.39,-2.76,2.81
6.314603090286255,1.96,-0.27,1.76,2.64
6.316795110702515,1.96,0.1,2.64,3.28
6.319386005401611,0.9,-0.07,1.04,1.37
6.33674693107605,-0.08,-0.48,0.33,0.58
6.339188814163208,-0.7,-0.9,0.58,1.27
6.342696905136108,-0.87,-0.98,0.12,1.31
6.346792936325073,-0.78,-0.31,-0.8,1.15
6.349950075149536,-0.37,0.49,-1.07,1.23
6.3521950244903564,0.35,0.79,-0.62,1.06
6.425148963928223,0.89,0.53,-0.48,1.14
6.427583932876587,1.19,0.17,-0.84,1.46
6.429884910583496,1.45,0.21,-0.86,1.69
6.4335291385650635,1.68,0.36,-0.55,1.8
6.43583083152771,1.56,0.29,-0.54,1.67
6.439538955688477,1.17,0.17,-0.53,1.29
6.44357705116272,0.73,0.18,-0.65,0.99
6.447672128677368,0.24,0.17,-0.66,0.72
6.45037579536438,-0.13,-0.07,-0.6,0.61
6.45256781578064,-0.27,-0.34,-0.48,0.64
6.468326807022095,-0.4,-0.41,-0.16,0.59
6.524454832077026,-0.71,-0.31,-0.1,0.78
6.5274341106414795,-1.08,-0.11,-0.11,1.09
6.5297160148620605,-1.28,-0.01,0.13,1.28
6.533645868301392,-1.47,-0.09,0.57,1.57
6.536283016204834,-1.75,-0.17,0.76,1.91
6.540337800979614,-2.02,-0.22,0.74,2.16
6.544310808181763,-2.07,-0.21,0.71,2.19
6.5483949184417725,-1.75,0.01,0.52,1.82
6.552142858505249,-0.96,0.35,0.8,1.29
6.556557893753052,-0.01,0.4,1.13,1.19
6.622105836868286,0.55,-0.15,0.85,1.02
6.624582052230835,0.59,-0.58,0.34,0.89
6.6269190311431885,0.44,-0.39,-0.07,0.59
6.630902051925659,0.2,-0.05,-0.16,0.26
6.633777856826782,-0.18,0.02,-0.23,0.29
6.636225938796997,-0.74,-0.17,-0.45,0.88
6.6534178256988525,-1.25,-0.74,-0.55,1.55
6.65582799911499,-1.47,-1.59,-0.02,2.16
6.6596338748931885,-1.36,-2.42,0.53,2.82
6.662662982940674,-1.1,-3.38,0.88,3.66
6.7211878299713135,-1.02,-4.89,1.27,5.15
6.723761796951294,-1.18,-6.87,1.41,7.11
6.726081132888794,-1.62,-8.73,1.22,8.96
6.729810953140259,-2.43,-10.44,0.7,10.74
6.733919858932495,-3.59,-11.73,0.67,12.28
6.7367918491363525,-4.62,-12.2,1.16,13.09
6.7408459186553955,-5.73,-12.77,2.45,14.2
6.744825124740601,-6.86,-13.42,3.81,15.54
6.748829126358032,-7.56,-13.35,3.58,15.75
6.755211114883423,-8.14,-12.62,2.32,15.19
6.815354108810425,-8.27,-11.66,0.91,14.32
6.818295001983643,-6.94,-10.75,0.48,12.8
6.820535898208618,-5.23,-9.21,1.67,10.72
6.824384927749634,-3.79,-7.83,2.54,9.06
6.828397989273071,-2.05,-6.16,1.37,6.63
6.8323071002960205,-0.28,-3.86,-2.29,4.49
6.834662914276123,2.48,-2.41,-6.14,7.04
6.838452100753784,6.57,-3.44,-7.8,10.76
6.844892978668213,11.49,-4.29,-5.68,13.51
6.85508394241333,15.13,-3.48,-0.04,15.52
6.9198009967803955,13.56,-2.18,3.49,14.17
6.9222729206085205,7.97,-0.21,2.18,8.26
6.925863981246948,3.12,1.78,-0.28,3.6
6.930024862289429,-0.44,3.33,-1.24,3.58
6.933568000793457,-3.49,4.22,0.85,5.54
6.937119007110596,-5.84,4.81,4.48,8.79
6.94118595123291,-7.5,5.35,6.42,11.22
6.9453349113464355,-8.42,6.33,5.97,12.1
6.949382066726685,-8.98,7.43,5.24,12.77
6.953912019729614,-8.54,8.08,5.12,12.82
7.018944025039673,-7.36,8.31,5.83,12.53
7.021889925003052,-6.07,8.01,6.17,11.79
7.024155855178833,-5.07,7.32,5.29,10.35
7.027859926223755,-4.92,7.02,4.94,9.89
7.030849933624268,-5.01,7.21,4.47,9.85
7.034003973007202,-4.22,7.25,3.88,9.24
7.036466836929321,-3.16,7.36,3.91,8.91
7.05279278755188,-1.89,7.51,4.14,8.78
7.0552051067352295,-0.55,7.47,4.01,8.49
7.059107065200806,0.47,7.54,3.7,8.41
7.118841886520386,1.49,7.7,2.96,8.38
7.121824026107788,2.66,7.78,2.32,8.54
7.1240129470825195,3.94,7.73,1.98,8.89
7.127717018127441,5.1,7.54,1.62,9.24
7.13182806968689,6.01,6.81,1.45,9.19
7.135461091995239,6.94,5.49,1.0,8.9
7.137624025344849,7.86,3.8,0.36,8.73
7.152103900909424,8.33,2.5,0.51,8.71
7.154509782791138,8.4,2.33,0.81,8.75
7.158046007156372,8.26,3.05,1.05,8.86
7.217848062515259,8.01,3.92,1.16,8.99
7.220829963684082,7.66,4.83,0.94,9.1
7.223053932189941,7.25,5.61,0.67,9.19
7.227010011672974,6.92,6.56,0.93,9.58
7.22998309135437,5.82,7.4,-0.35,9.42
7.233675956726074,4.68,-1.36,-12.03,12.97
7.236189126968384,2.24,-50.15,-34.63,60.98
7.239404916763306,-5.57,-41.42,-20.6,46.59
7.243245840072632,-4.89,3.83,29.89,30.52
7.252110004425049,4.08,9.76,23.55,25.81
7.262174844741821,10.37,9.43,-1.47,14.09
7.322361946105957,7.85,14.61,-13.1,21.13
7.325472116470337,3.98,16.52,-5.08,17.73
7.327782869338989,2.45,8.17,5.64,10.22
7.336152791976929,1.46,-6.41,2.8,7.14
7.338606119155884,-0.79,-20.31,-4.05,20.72
7.342759847640991,-1.57,-11.22,-3.56,11.87
7.346834897994995,1.72,2.38,0.3,2.95
7.350599050521851,5.14,4.56,0.21,6.87
7.3530919551849365,6.07,3.52,-1.81,7.24
7.3611369132995605,3.96,2.19,-0.68,4.57
7.422657012939453,1.39,0.27,0.48,1.49
7.425594091415405,0.52,-1.65,-1.26,2.14
7.427794933319092,0.7,-1.49,-2.67,3.13
7.435511827468872,1.06,0.06,-1.74,2.03
7.437880992889404,1.59,0.46,-0.66,1.78
7.441427946090698,1.99,0.08,-1.0,2.22
7.44548487663269,2.02,0.26,-1.16,2.34
7.4495909214019775,1.71,0.54,-0.4,1.83
7.451979875564575,1.28,0.26,0.28,1.33
7.460364103317261,1.03,-0.12,-0.08,1.04
7.52118992805481,0.65,-0.28,-0.99,1.21
7.524111032485962,0.02,-0.32,-1.41,1.44
7.526302099227905,-0.73,-0.15,-1.27,1.47
7.5300819873809814,-1.3,0.35,-1.07,1.71
7.534160852432251,-1.49,0.75,-0.78,1.84
7.536750078201294,-1.37,0.65,-0.41,1.57
7.540663957595825,-1.37,0.39,0.12,1.42
7.5433900356292725,-1.84,0.41,0.69,2.0
7.549848794937134,-2.4,0.87,0.74,2.65
7.55975079536438,-2.79,1.18,0.57,3.08
7.621724843978882,-2.54,0.91,0.79,2.81
7.624694108963013,-2.4,0.13,1.26,2.71
7.6269800662994385,-2.8,-0.57,1.53,3.24
7.630769968032837,-3.61,-1.01,1.21,3.93
7.634287118911743,-4.26,-0.97,0.5,4.39
7.636883020401001,-4.3,-0.46,-0.16,4.32
7.652755975723267,-3.25,0.34,-0.01,3.26
7.655071973800659,-1.75,0.58,0.32,1.87
7.658673048019409,-0.96,-0.29,0.7,1.22
7.662708044052124,-0.48,-1.62,0.51,1.76
7.725421905517578,0.24,-1.87,-0.53,1.95
7.727898836135864,1.15,-1.33,-0.26,1.77
7.7314698696136475,1.66,-1.36,0.75,2.27
7.734417915344238,0.52,-1.99,0.13,2.06
7.73703408241272,-0.91,-2.63,-1.56,3.19
7.75280499458313,-0.87,-2.91,-1.98,3.62
7.7552149295806885,0.28,-2.83,0.07,2.84
7.758711099624634,0.76,-3.16,1.29,3.49
7.762670993804932,0.28,-4.53,0.14,4.54
7.765640020370483,0.06,-6.51,-0.19,6.51
7.8262670040130615,0.05,-8.26,1.04,8.32
7.828895807266235,0.75,-8.78,1.59,8.95
7.832531929016113,2.16,-9.34,2.37,9.87
7.834885835647583,3.48,-11.31,2.76,12.15
7.83791184425354,2.93,-13.47,3.1,14.12
7.84076189994812,0.49,-12.69,2.58,12.95
7.844819784164429,-3.55,-6.08,1.1,7.12
7.848783016204834,-7.74,1.44,-0.67,7.9
7.852531909942627,-9.28,2.63,-2.6,9.98
7.857780933380127,-7.59,-2.39,-3.75,8.79
7.926062822341919,-5.52,-10.76,-3.59,12.61
7.928658962249756,-6.86,-17.4,-1.62,18.77
7.930997133255005,-7.94,-17.87,1.34,19.6
7.934392929077148,-6.92,-13.25,-0.2,14.94
7.93703293800354,-4.24,-8.47,-2.53,9.8
7.9411070346832275,-1.15,-6.44,-2.99,7.19
7.94405198097229,0.82,-6.41,-3.32,7.26
7.948112964630127,2.55,-5.51,-4.53,7.57
7.951725959777832,4.82,-3.9,-5.81,8.49
7.957047939300537,7.38,-3.05,-5.82,9.88
8.026120901107788,8.93,-2.95,-3.46,10.02
8.02856707572937,7.68,-3.23,-0.73,8.36
8.030901908874512,3.51,-3.19,0.58,4.77
8.034651041030884,-0.38,-2.58,0.85,2.74
8.037165880203247,-3.4,-1.57,1.11,3.9
8.04043197631836,-6.16,-0.21,2.04,6.49
8.044137954711914,-8.74,1.5,3.21,9.43
8.04822301864624,-10.98,3.36,4.07,12.18
8.05117678642273,-12.47,5.34,4.23,14.2
8.056725978851318,-13.12,7.42,3.93,15.57
8.069074869155884,-12.82,9.14,3.28,16.08
8.128439903259277,-11.95,10.0,2.92,15.85
8.131419897079468,-10.64,9.78,2.98,14.75
8.133743047714233,-9.32,9.1,3.2,13.41
8.136034965515137,-8.57,8.3,2.98,12.29
8.153554916381836,-7.99,7.43,2.85,11.27
8.155977964401245,-7.75,7.26,2.95,11.02
8.160066843032837,-7.62,7.97,2.83,11.38
8.164183855056763,-7.16,8.72,2.41,11.53
8.167531967163086,-6.53,8.81,2.0,11.14
8.169606924057007,-6.09,8.49,2.0,10.63
8.230211019515991,-5.19,8.34,1.61,9.95
8.233925104141235,-3.74,8.5,0.87,9.32
8.23644495010376,-1.74,8.45,0.83,8.66
8.239927053451538,0.85,7.95,0.98,8.05
8.242909908294678,3.88,7.33,0.53,8.31
8.246968984603882,7.02,7.07,-0.75,9.99
8.24966311454773,9.17,7.01,-2.06,11.72
8.251928091049194,10.16,6.69,-3.06,12.54
8.255778074264526,10.21,5.82,-3.69,12.31
8.265176057815552,9.92,4.92,-3.42,11.58
8.327222108840942,9.73,4.79,-6.77,12.78
8.329795122146606,13.61,4.7,-21.65,26.0
8.332212924957275,26.87,-2.2,-30.92,41.02
8.336268901824951,34.81,-17.54,-1.93,39.02
8.340053796768188,11.05,-14.18,28.06,33.32
8.344159841537476,-6.49,-4.97,13.22,15.54
8.348232984542847,-13.83,-1.87,-19.57,24.03
8.351346969604492,-16.39,-2.09,-15.66,22.76
8.354591131210327,-8.77,0.53,12.33,15.14
8.36895203590393,0.36,4.27,13.42,14.08
8.42828893661499,3.48,5.28,-2.12,6.66
8.43146300315857,2.52,3.74,-3.66,5.8
8.433799028396606,1.9,-0.6,2.99,3.59
8.436082124710083,2.76,-4.24,1.91,5.4
8.452992916107178,4.32,-3.69,-3.42,6.63
8.455436944961548,6.75,-0.89,-3.85,7.82
8.459059953689575,8.05,0.9,-1.88,8.31
8.463151931762695,6.93,1.84,-1.91,7.42
8.467503786087036,5.14,1.8,-2.57,6.02
8.469752073287964,3.16,0.75,-1.77,3.69
8.531099081039429,1.17,-0.28,-1.25,1.73
8.534321069717407,-0.51,-0.6,-0.99,1.26
8.53698182106018,-1.73,-0.09,-0.32,1.76
8.540313959121704,-2.23,0.65,0.22,2.33
8.544275045394897,-1.85,0.49,0.29,1.93
8.548372983932495,-1.09,-0.58,-0.23,1.25
8.551989793777466,-0.33,-1.3,-0.88,1.6
8.554217100143433,-0.17,-1.08,-1.04,1.5
8.569003820419312,-0.35,-0.32,-1.11,1.2
8.571297883987427,-0.25,0.6,-1.32,1.47
8.632411003112793,-0.22,1.22,-1.28,1.78
8.635658979415894,-0.25,1.36,-0.53,1.48
8.637934923171997,-0.76,1.09,0.33,1.36
8.641807794570923,-1.75,0.84,0.78,2.09
8.645854949951172,-2.7,0.8,1.11,3.02
8.649840116500854,-3.4,0.77,1.43,3.76
8.652137994766235,-3.67,0.58,1.59,4.04
8.655900001525879,-3.25,0.3,1.72,3.68
8.659918069839478,-2.8,0.13,1.83,3.34
8.663981914520264,-2.78,-0.19,1.8,3.31
8.730233907699585,-3.06,-0.64,1.31,3.38
8.732837915420532,-2.97,-0.82,0.79,3.18
8.73515796661377,-2.51,-0.6,0.08,2.58
8.738236904144287,-1.71,-0.31,-0.51,1.81
8.741243124008179,-0.72,-0.64,-1.01,1.39
8.745269060134888,0.23,-1.58,-1.08,1.92
8.74935507774353,1.23,-2.28,-0.66,2.67
8.75304913520813,1.55,-2.7,0.02,3.11
8.755202054977417,0.67,-2.79,-0.61,2.93
8.768435001373291,-0.41,-2.54,-2.53,3.6
8.829974889755249,-0.95,-2.39,-2.34,3.47
8.832963943481445,-0.7,-2.37,-0.81,2.6
8.835263013839722,0.35,-2.88,-0.58,2.95
8.839353799819946,1.13,-4.36,-0.02,4.5
8.843405961990356,1.01,-5.49,0.55,5.6
8.847458124160767,0.73,-5.57,0.92,5.69
8.850324869155884,0.78,-5.09,1.46,5.35
8.852900981903076,0.73,-5.44,2.01,5.84
8.856926918029785,0.54,-7.45,1.22,7.56
8.86090898513794,0.41,-10.36,0.67,10.38
8.871622800827026,-0.23,-12.5,0.94,12.53
8.933892011642456,-2.0,-10.46,1.65,10.77
8.936329126358032,-4.9,-4.54,0.18,6.68
8.938556909561157,-7.69,-1.94,-1.47,8.06
8.942307949066162,-10.15,-3.8,-2.59,11.14
8.945339918136597,-11.5,-6.53,-3.46,13.66
8.949403047561646,-10.91,-9.35,-3.42,14.76
8.953073978424072,-9.7,-11.77,-1.69,15.34
8.955400943756104,-9.78,-12.35,-0.39,15.75
8.970000982284546,-9.37,-11.99,-0.05,15.21
8.972473859786987,-5.44,-12.02,0.29,13.19
9.034932851791382,-2.22,-11.1,-1.96,11.48
9.037883043289185,-0.28,-8.96,-2.76,9.37
9.040129899978638,0.89,-6.44,-3.34,7.3
9.043828010559082,1.85,-4.72,-4.81,6.98
9.047682046890259,3.1,-3.89,-6.09,7.86
9.051378011703491,4.22,-3.34,-5.77,7.89
9.05402398109436,5.3,-2.43,-2.79,6.46
9.057343006134033,5.54,-1.14,0.03,5.65
9.061363935470581,4.26,-0.07,0.08,4.26
9.069624900817871,2.29,0.19,-0.95,2.48
9.132981061935425,0.16,0.37,-0.03,0.4
9.135414838790894,-2.37,1.1,2.27,3.46
9.139010906219482,-5.16,2.42,3.94,6.92
9.142051935195923,-8.01,4.1,4.18,9.92
9.146116971969604,-10.26,6.1,3.43,12.41
9.150068998336792,-11.46,7.87,2.18,14.07
9.152359008789062,-11.53,9.38,1.86,14.97
9.155983924865723,-10.33,10.25,2.76,14.81
9.1600821018219,-8.58,10.38,3.54,13.92
9.169512033462524,-7.34,9.99,3.29,12.82
9.234256982803345,-6.66,9.39,2.61,11.8
9.236683130264282,-5.84,8.82,1.98,10.76
9.238977909088135,-4.85,8.68,2.44,10.23
9.242718935012817,-4.11,8.77,2.37,9.97
9.24674391746521,-3.55,8.88,2.05,9.78
9.251229047775269,-3.45,9.23,1.57,9.97
9.253631830215454,-3.25,9.63,1.21,10.23
9.25764799118042,-2.53,10.02,1.07,10.38
9.261667013168335,-1.17,10.26,0.94,10.36
9.268182039260864,1.08,10.2,0.63,10.27
9.337739944458008,3.96,9.9,-0.12,10.66
9.340308904647827,6.62,9.51,-1.1,11.63
9.342818021774292,8.29,9.03,-2.2,12.45
9.346898794174194,9.09,8.09,-3.84,12.76
9.349890947341919,9.69,6.48,-4.67,12.55
9.352115869522095,10.51,4.94,-3.91,12.25
9.356276988983154,11.02,4.69,-2.77,12.29
9.360361814498901,10.6,5.92,-5.61,13.37
9.364425897598267,12.26,6.74,-15.41,20.81
9.368016004562378,19.1,0.53,-16.25,25.08
9.436181783676147,23.08,-14.38,4.92,27.63
9.439271926879883,9.08,-15.27,20.68,27.26
9.441555976867676,-3.06,-9.68,7.77,12.78
9.445464849472046,-9.19,-8.11,-15.21,19.53
9.44949984550476,-11.46,-4.32,-9.77,15.66
9.453243970870972,-6.07,3.05,6.06,9.1
9.455493927001953,-1.41,5.49,4.01,6.94
9.470276117324829,0.84,4.57,-2.35,5.2
9.472705125808716,1.95,2.59,-0.6,3.29
9.476206064224243,3.63,-0.52,1.88,4.12
9.539423942565918,5.98,-3.07,0.59,6.74
9.542231798171997,7.52,-3.07,-3.22,8.73
9.544338941574097,7.85,-1.73,-2.69,8.47
9.548165082931519,6.08,0.08,-0.56,6.1
9.551764011383057,3.71,1.07,-0.36,3.87
9.554322957992554,1.88,1.41,-0.91,2.52
9.558360815048218,0.67,0.81,-0.36,1.11
9.562405824661255,0.41,-0.33,-0.21,0.56
9.56643295288086,0.32,-1.22,-0.56,1.38
9.570168018341064,-0.25,-1.17,-0.47,1.28
9.635424852371216,-0.91,-0.81,-0.62,1.36
9.63847804069519,-0.95,-0.44,-1.37,1.72
9.640785932540894,-0.39,-0.56,-1.12,1.31
9.644410848617554,-0.1,-0.77,-1.06,1.31
9.648267030715942,-0.15,-0.26,-1.37,1.4
9.651739835739136,-0.3,0.32,-1.35,1.41
9.654590845108032,-0.67,0.78,-0.98,1.42
9.657716989517212,-1.21,1.09,-0.3,1.65
9.661767959594727,-1.59,1.16,0.14,1.97
9.665848016738892,-2.02,1.02,0.57,2.33
9.675759077072144,-2.36,0.91,0.98,2.71
9.739310026168823,-2.55,0.85,1.47,3.06
9.742154836654663,-2.66,0.45,1.67,3.17
9.744386911392212,-2.66,0.06,1.87,3.25
9.748029947280884,-2.38,0.04,1.7,2.92
9.752234935760498,-2.01,-0.02,1.74,2.65
9.754905939102173,-1.71,-0.16,1.36,2.19
9.758210897445679,-1.56,-0.46,0.68,1.76
9.762264013290405,-1.63,-0.28,-0.08,1.65
9.766372919082642,-1.37,0.25,-0.61,1.52
9.775009870529175,-0.3,0.59,-1.36,1.51
9.83851408958435,0.87,0.26,-1.3,1.58
9.841466903686523,1.71,-0.78,-0.79,2.03
9.84379506111145,1.58,-1.81,-0.62,2.48
9.847534894943237,0.71,-2.29,0.26,2.41
9.851491928100586,-0.53,-2.43,0.46,2.52
9.854132890701294,-1.55,-2.69,-0.24,3.11
9.857219934463501,-1.48,-2.98,-1.29,3.56
9.86013913154602,-0.77,-3.67,-0.97,3.87
9.86421799659729,0.65,-5.02,-0.11,5.06
9.874270915985107,1.79,-6.14,0.54,6.41
9.938062906265259,1.93,-6.71,0.43,6.99
9.940972089767456,1.16,-6.53,0.25,6.63
9.943269968032837,-0.04,-6.01,0.34,6.01
9.947028875350952,-0.63,-7.34,0.99,7.43
9.951600790023804,-0.81,-10.68,1.78,10.85
9.954160928726196,-2.31,-11.53,2.48,12.01
9.957583904266357,-5.06,-8.59,1.86,10.14
9.961671113967896,-8.09,-5.21,-0.22,9.62
9.965459108352661,-9.99,-4.22,-2.21,11.06
9.973374128341675,-9.69,-5.66,-2.92,11.59
10.037343978881836,-8.01,-8.34,-1.74,11.69
10.04031491279602,-7.24,-11.01,-0.34,13.18
10.042622804641724,-7.93,-12.58,-0.4,14.87
10.046388864517212,-6.99,-13.63,-0.05,15.31
10.050418138504028,-3.7,-13.21,-0.44,13.72
10.052748918533325,-2.13,-10.68,-2.07,11.08
10.056612968444824,-1.05,-7.99,-1.78,8.25
10.060663938522339,-0.29,-5.93,-2.24,6.34
10.06463885307312,0.54,-4.63,-3.85,6.04
10.072736024856567,2.09,-4.13,-4.96,6.78
10.141217947006226,3.8,-3.62,-4.63,6.99
10.144109964370728,5.27,-3.06,-2.93,6.76
10.146404027938843,5.73,-2.29,-1.11,6.26
10.150159120559692,4.4,-1.49,-0.33,4.65
10.152379989624023,2.12,-1.02,-0.23,2.36
10.155382871627808,-0.27,-0.58,0.63,0.89
10.158375978469849,-2.63,0.37,1.99,3.31
10.162430047988892,-4.89,1.67,2.81,5.88
10.166518926620483,-7.1,3.1,3.38,8.45
10.172040939331055,-9.1,4.55,3.6,10.79
10.241024017333984,-10.54,5.93,3.17,12.5
10.243989944458008,-11.19,7.45,2.56,13.68
10.24629807472229,-10.85,8.86,2.47,14.22
10.250121831893921,-9.81,9.77,2.71,14.1
10.252464056015015,-8.71,9.96,2.96,13.55
10.255692958831787,-7.69,9.66,2.84,12.66
10.259727954864502,-6.78,9.33,2.77,11.86
10.2637779712677,-6.33,9.15,2.54,11.41
10.268456935882568,-5.91,9.01,2.16,10.98
10.271393060684204,-5.81,9.46,1.82,11.24
10.340611934661865,-5.69,10.14,1.57,11.73
10.343602895736694,-5.31,10.59,1.82,11.98
10.345813035964966,-4.84,10.72,1.89,11.91
10.349459886550903,-4.06,10.49,1.35,11.32
10.3524649143219,-2.85,10.35,0.3,10.73
10.35489010810852,-1.37,10.58,-0.56,10.68
10.371052980422974,0.56,10.8,-0.66,10.83
10.373409032821655,2.96,10.53,-0.16,10.93
10.376909017562866,5.93,9.56,-0.44,11.25
10.38100790977478,8.59,7.99,-1.88,11.88
10.442441940307617,10.02,6.18,-2.84,12.11
10.444966077804565,10.31,4.82,-2.77,11.71
10.448572874069214,10.12,4.92,-2.18,11.46
10.452394962310791,10.17,6.59,-2.48,12.36
10.455258131027222,9.9,8.32,-8.69,15.58
10.459320783615112,12.82,6.25,-22.67,26.78
10.462237119674683,27.27,-26.4,-15.21,40.88
10.46633505821228,27.46,-65.85,18.69,73.75
10.46938681602478,5.35,-22.03,32.28,39.44
10.47160291671753,-5.56,5.71,0.54,7.98
10.486317873001099,-14.07,13.05,-28.07,34.0
10.546266794204712,-16.07,17.44,-19.27,30.55
10.549407005310059,-8.24,17.86,4.24,20.12
10.551728963851929,-0.35,12.3,17.97,21.77
10.554111957550049,1.4,2.54,9.21,9.65
10.570950984954834,1.76,-12.96,-1.66,13.18
10.573393106460571,4.15,-19.22,-4.84,20.24
10.576637983322144,7.27,-4.76,1.03,8.75
10.58080506324768,9.02,3.13,-0.91,9.59
10.58384108543396,8.28,3.88,-6.63,11.29
10.58614993095398,5.92,3.6,-5.22,8.67
10.647226095199585,3.56,1.78,-0.09,3.98
10.650190114974976,2.03,-1.04,0.45,2.32
10.652426958084106,0.86,-1.88,-2.04,2.9
10.65494704246521,-0.41,-0.65,-2.57,2.68
10.670561075210571,-1.14,0.33,-0.58,1.32
10.672991037368774,-1.28,0.35,0.26,1.35
10.677005052566528,-1.05,0.01,-0.23,1.07
10.680975914001465,-0.64,-0.48,-0.08,0.8
10.685457944869995,-0.23,-0.65,0.58,0.9
10.687771081924438,0.08,-0.61,0.45,0.76
10.749533891677856,0.27,-0.66,-0.51,0.87
10.752548933029175,0.41,-0.76,-1.34,1.59
10.754904985427856,0.04,-0.36,-1.3,1.34
10.758518934249878,-0.53,0.45,-1.0,1.21
10.762582063674927,-1.01,1.11,-0.55,1.59
10.766623973846436,-1.5,1.45,-0.11,2.08
10.7691810131073,-2.08,1.37,0.34,2.51
10.771389961242676,-2.52,0.85,0.75,2.76
10.787093877792358,-2.88,0.56,1.3,3.2
10.789427042007446,-3.12,0.47,1.33,3.42
10.850920915603638,-3.08,0.43,1.19,3.32
10.853863000869751,-2.85,0.32,1.06,3.05
10.856059789657593,-2.38,0.02,1.24,2.68
10.85981798171997,-2.13,-0.28,1.79,2.79
10.863921880722046,-2.34,-0.48,1.72,2.94
10.86866307258606,-2.54,-0.41,1.02,2.76
10.871092081069946,-2.13,-0.05,-0.26,2.14
10.87476396560669,-1.2,-0.03,-0.74,1.41
10.878802061080933,-0.16,-0.69,-0.19,0.73
10.882946014404297,0.77,-1.6,0.41,1.82
10.94477105140686,1.23,-1.82,0.15,2.2
10.947224855422974,1.05,-1.42,-0.64,1.87
10.952274084091187,0.35,-1.32,-1.18,1.8
10.954607009887695,-0.58,-2.02,-1.5,2.58
10.958099126815796,-0.55,-3.18,-1.3,3.47
10.962158918380737,0.25,-4.28,-0.79,4.35
10.966284036636353,0.27,-5.12,-0.34,5.13
10.96921181678772,-0.16,-5.93,-1.12,6.03
10.971404790878296,-0.1,-7.1,-2.0,7.37
10.986685037612915,0.86,-8.21,-1.21,8.34
11.046567916870117,2.11,-8.49,1.16,8.82
11.04977011680603,2.66,-8.58,2.18,9.24
11.052040815353394,1.83,-9.21,1.88,9.57
11.054471969604492,0.21,-9.04,1.05,9.1
11.070889949798584,-1.04,-8.12,0.58,8.2
11.073274850845337,-2.57,-5.86,0.57,6.42
11.076620817184448,-5.5,-1.68,-0.24,5.75
11.080693006515503,-8.13,0.26,-2.47,8.5
11.0847909450531,-8.59,-1.95,-3.76,9.57
11.087100982666016,-7.48,-6.77,-2.46,10.38
11.14795994758606,-5.93,-10.71,-0.89,12.27
11.150945901870728,-4.91,-10.98,0.26,12.03
11.15329098701477,-2.11,-9.72,0.23,9.94
11.157405138015747,0.58,-8.36,-1.24,8.47
11.161496877670288,1.0,-6.71,-2.26,7.15
11.16555905342102,1.95,-5.19,-1.16,5.66
11.169020891189575,2.49,-3.83,0.15,4.57
11.171263933181763,2.21,-2.53,-0.91,3.48
11.175012826919556,2.12,-1.53,-1.53,3.02
11.179033994674683,1.94,-1.15,-0.86,2.41
11.24305510520935,1.17,-1.1,0.16,1.61
11.246043920516968,-0.25,-1.0,1.03,1.45
11.24826693534851,-2.02,-0.7,1.49,2.6
11.253613948822021,-3.65,-0.24,1.7,4.03
11.255990982055664,-5.15,0.45,1.96,5.52
11.259820938110352,-6.46,1.52,2.52,7.09
11.263898134231567,-7.56,2.82,3.12,8.65
11.267804861068726,-8.46,4.19,3.36,10.02
11.270128965377808,-9.19,5.47,3.45,11.23
11.274483919143677,-9.8,6.48,3.45,12.24
11.285515069961548,-10.15,7.18,3.29,12.86
11.348201036453247,-10.5,7.58,3.56,13.43
11.350663900375366,-10.51,7.4,3.69,13.37
11.353022813796997,-10.03,6.75,3.78,12.66
11.356158018112183,-9.39,6.06,3.98,11.86
11.36017894744873,-8.75,5.4,4.03,11.04
11.364237070083618,-8.25,4.92,3.99,10.4
11.368242025375366,-7.86,4.78,3.94,10.0
11.370741128921509,-7.81,4.82,3.73,9.9
11.374331951141357,-7.93,4.86,3.62,9.98
11.383908033370972,-7.93,4.83,3.58,9.95
11.446046113967896,-7.77,4.69,3.26,9.64
11.448494911193848,-7.32,4.43,3.05,9.08
11.450773000717163,-6.36,3.89,2.98,8.02
11.454264879226685,-5.02,3.27,2.62,6.53
11.4582839012146,-3.57,2.77,1.91,4.9
11.46235203742981,-2.02,2.29,0.85,3.16
11.466440916061401,-0.48,1.77,-0.1,1.83
11.469367980957031,1.2,1.26,-0.83,1.92
11.473952054977417,3.15,0.78,-1.36,3.51
11.487223863601685,5.26,0.56,-1.5,5.49
11.547273874282837,6.9,0.83,-1.66,7.14
11.54991602897644,7.97,0.9,-1.92,8.24
11.552258014678955,8.63,-0.08,-2.27,8.92
11.554742097854614,8.83,-1.57,-2.95,9.44
11.571472883224487,8.88,-3.13,-3.66,10.1
11.573909044265747,8.72,-4.86,-4.06,10.77
11.578032970428467,8.07,-6.75,-2.49,10.81
11.582058906555176,7.45,-8.41,-0.09,11.23
11.584963083267212,6.24,-8.25,3.96,11.07
11.587272882461548,5.71,-7.73,6.75,11.74
11.64886212348938,5.46,-7.71,8.49,12.7
11.652175903320312,5.4,-8.83,8.16,13.18
11.65469479560852,6.75,-14.35,5.45,16.76
11.658182859420776,2.07,-16.99,-0.78,17.13
11.662192106246948,-12.04,-11.56,7.0,18.09
11.666229009628296,-14.95,-5.11,14.99,21.77
11.669535875320435,-1.81,0.66,9.52,9.71
11.671770811080933,3.46,5.34,-2.35,6.78
11.687802076339722,5.27,6.91,-10.86,13.9
11.690117120742798,7.8,5.23,-15.01,17.7
11.751455068588257,10.25,2.23,-10.98,15.18
11.754369974136353,8.99,1.12,-3.28,9.63
11.75658893585205,4.5,1.13,-0.23,4.64
11.760534048080444,2.8,0.48,-3.48,4.49
11.764516115188599,3.49,0.02,-6.31,7.21
11.769087076187134,3.82,-0.55,-2.39,4.53
11.771526098251343,3.21,-2.31,3.89,5.54
11.775162935256958,1.27,-3.55,7.28,8.19
11.779195070266724,-1.77,-2.53,6.42,7.12
11.783298969268799,-5.19,-0.44,2.28,5.68
11.850129842758179,-6.82,0.68,-1.33,6.98
11.85252594947815,-5.59,0.68,-3.09,6.42
11.854835987091064,-2.48,0.26,-3.11,3.98
11.85824990272522,0.33,-0.03,-2.09,2.11
11.861264944076538,2.27,0.01,-1.02,2.48
11.865335941314697,3.38,0.22,-0.14,3.39
11.8679678440094,3.53,0.57,0.37,3.59
11.87020492553711,2.91,0.59,0.18,2.97
11.874082803726196,1.76,0.05,0.01,1.76
11.880515813827515,0.32,-0.52,0.13,0.62
11.949834108352661,-1.43,-0.62,0.05,1.55
11.952821969985962,-2.62,-0.61,0.02,2.69
11.955406904220581,-3.17,-0.55,0.26,3.22
11.959476947784424,-3.61,-0.37,0.83,3.72
11.963509798049927,-3.94,-0.27,0.85,4.03
11.967597007751465,-3.54,-0.39,0.63,3.61
11.970138788223267,-2.85,-0.43,0.55,2.93
11.972370862960815,-2.04,-0.55,0.87,2.28
11.98769998550415,-1.12,-0.82,0.91,1.65
11.99005389213562,-0.54,-0.65,0.57,1.01
12.052936792373657,-0.05,-0.28,0.48,0.55
12.05613899230957,0.2,0.05,0.81,0.83
12.058347940444946,0.01,-0.03,0.51,0.51
12.062062978744507,-0.39,-0.37,0.05,0.53
12.066183805465698,-0.61,-0.4,0.03,0.73
12.069624900817871,-0.77,-0.44,0.31,0.93
12.072241067886353,-0.87,-0.83,-0.2,1.21
12.08892297744751,-0.79,-1.37,-2.05,2.58
12.09132194519043,-0.59,-2.19,-1.88,2.94
12.095026016235352,0.12,-3.29,0.16,3.29
12.099141836166382,0.72,-3.75,1.47,4.09
12.162415981292725,0.77,-3.83,1.62,4.22
12.164911985397339,0.3,-4.23,1.56,4.51
12.169601917266846,-0.64,-4.98,2.03,5.41
12.172023057937622,-1.87,-6.29,1.98,6.85
12.176081895828247,-3.01,-8.71,1.6,9.35
12.180046796798706,-4.37,-12.3,2.14,13.22
12.18302607536316,-6.7,-16.11,2.33,17.6
12.186464071273804,-9.35,-17.38,2.56,19.9
12.188810110092163,-10.44,-14.74,3.63,18.42
12.203511953353882,-10.49,-10.15,4.3,15.21
12.265705823898315,-9.77,-6.52,2.09,11.93
12.27059006690979,-7.52,-4.28,0.29,8.65
12.27311110496521,-4.68,-3.27,0.18,5.71
12.276381969451904,-2.57,-3.28,1.15,4.32
12.27935791015625,-1.23,-3.68,2.08,4.4
12.283416986465454,-0.7,-3.37,2.11,4.03
12.286586999893188,-0.87,-1.83,1.43,2.48
12.288785934448242,-1.44,0.32,0.47,1.54
12.305094957351685,-2.0,2.08,0.18,2.89
12.307513952255249,-2.14,3.37,-0.04,3.99
12.372167825698853,-1.78,4.55,-0.58,4.92
12.375093936920166,-1.32,5.31,-0.66,5.51
12.37732195854187,-1.18,5.29,0.1,5.42
12.381014108657837,-1.61,5.03,1.63,5.52
12.384975910186768,-2.48,4.9,3.21,6.36
12.387286901473999,-3.28,5.03,4.23,7.34
12.39098596572876,-3.73,5.35,3.77,7.53
12.394986867904663,-3.84,5.58,2.46,7.2
12.397910833358765,-4.0,5.56,1.47,7.0
12.401975870132446,-4.34,5.38,1.53,7.07
12.465070962905884,-4.7,5.2,2.51,7.44
12.468209028244019,-4.9,4.98,3.48,7.8
12.470560789108276,-4.82,4.71,3.68,7.67
12.474579095840454,-4.4,4.22,3.3,6.93
12.478636026382446,-3.57,3.41,3.03,5.79
12.482710123062134,-2.52,2.7,2.95,4.72
12.486226797103882,-1.71,2.42,3.29,4.42
12.488454103469849,-0.97,2.2,3.27,4.05
12.492136001586914,-0.27,1.95,2.9,3.5
12.496145009994507,0.49,1.54,2.29,2.8
12.560322999954224,1.49,0.94,1.66,2.42
12.563270807266235,2.72,0.24,1.18,2.97
12.565500020980835,4.21,-0.58,0.73,4.31
12.569568872451782,5.7,-1.5,0.21,5.89
12.572070837020874,6.63,-2.54,-0.48,7.11
12.57561182975769,7.27,-3.74,-1.4,8.29
12.579659938812256,7.78,-4.23,-2.55,9.21
12.583741903305054,8.09,-3.9,-3.56,9.66
12.586591005325317,8.12,-3.67,-3.67,9.63
12.588804960250854,8.14,-3.78,-2.07,9.21
12.666327953338623,8.32,-4.1,0.02,9.27
12.66881012916565,8.27,-3.82,1.99,9.32
12.671088933944702,8.01,-2.91,3.74,9.3
12.674798965454102,7.74,-1.94,5.07,9.45
12.678597927093506,7.26,-1.71,5.95,9.54
12.68271279335022,7.03,-2.18,6.23,9.64
12.686347007751465,7.0,-2.9,3.7,8.43
12.68861985206604,2.55,-4.05,-1.06,4.9
12.692389011383057,-12.02,-8.21,0.87,14.58
12.696263074874878,-23.16,-18.08,6.55,30.1
12.762963056564331,-8.94,-19.03,10.87,23.66
12.766096830368042,3.51,-5.77,5.3,8.58
12.768327951431274,6.98,2.47,0.6,7.42
12.771279096603394,9.96,4.18,-1.57,10.91
12.775367975234985,13.04,3.57,-2.22,13.7
12.779421091079712,12.98,3.68,0.1,13.49
12.783532857894897,8.33,4.24,-2.48,9.67
12.786747932434082,3.41,2.57,-11.52,12.28
12.789005994796753,1.54,0.41,-16.61,16.68
12.804433107376099,1.92,-0.03,-10.7,10.87
12.870201826095581,3.62,0.91,-1.12,3.89
12.873071908950806,3.57,1.43,3.26,5.04
12.875340938568115,1.72,0.18,3.73,4.11
12.87906002998352,-0.64,-1.69,3.67,4.09
12.883169889450073,-3.26,-2.65,4.26,5.98
12.886729001998901,-5.56,-2.48,4.02,7.29
12.889328002929688,-6.81,-1.38,1.69,7.15
12.904768943786621,-6.29,0.1,-1.45,6.45
12.907217979431152,-3.93,0.98,-3.62,5.43
12.91046690940857,-0.91,0.95,-3.7,3.92
12.914602994918823,1.88,0.28,-2.04,2.78
12.982379913330078,3.84,-0.11,-0.04,3.84
12.984855890274048,4.34,0.14,0.35,4.35
12.98707890510559,3.26,0.62,-0.41,3.34
12.990525007247925,1.19,0.72,-0.68,1.54
12.994606018066406,-0.89,0.25,-0.21,0.94
12.998654127120972,-2.27,-0.45,0.16,2.31
13.003107786178589,-2.98,-0.69,0.29,3.07
13.00540804862976,-3.19,-0.51,0.39,3.25
13.00902009010315,-2.98,-0.26,0.87,3.11
13.013063907623291,-2.38,-0.09,1.07,2.61
13.081223011016846,-1.6,0.02,1.0,1.88
13.084429025650024,-0.84,0.11,1.01,1.31
13.086715936660767,-0.16,0.08,0.94,0.95
13.08983588218689,0.34,-0.08,0.6,0.69
13.10489797592163,0.52,-0.09,0.29,0.6
13.107335805892944,0.56,0.18,0.61,0.84
13.110799074172974,0.31,0.27,1.08,1.15
13.114886045455933,-0.53,-0.05,1.05,1.17
13.119009971618652,-1.52,-0.21,0.67,1.67
13.121287107467651,-1.94,0.09,0.38,1.97
13.188992977142334,-1.83,0.26,0.42,1.89
13.191983938217163,-1.48,0.03,0.63,1.6
13.19418978691101,-0.93,-0.38,0.06,1.0
13.197834968566895,-0.49,-0.55,-0.47,0.87
13.201689004898071,-0.14,-0.41,-1.45,1.51
13.204494953155518,0.08,-0.37,-2.14,2.17
13.208556890487671,0.09,-1.29,-0.89,1.56
13.212488889694214,0.17,-2.57,0.38,2.6
13.216606855392456,0.11,-3.25,1.05,3.41
13.22009801864624,-0.24,-4.25,2.11,4.75
13.287559986114502,-1.01,-6.15,3.07,6.94
13.290508031845093,-2.48,-8.4,3.14,9.3
13.292792081832886,-4.28,-11.06,2.61,12.14
13.296303033828735,-5.93,-13.58,3.16,15.15
13.300445795059204,-6.39,-14.15,4.86,16.26
13.303593873977661,-4.87,-13.36,6.09,15.46
13.305975914001465,-3.14,-12.77,6.04,14.47
13.323988914489746,-2.72,-12.14,4.03,13.07
13.326421022415161,-3.23,-11.24,1.82,11.83
13.33031678199768,-2.54,-9.71,1.42,10.13
13.39922308921814,-1.45,-8.62,1.8,8.92
13.403010129928589,-1.18,-8.14,1.43,8.34
13.405616044998169,-1.51,-6.37,1.24,6.66
13.409033060073853,-1.93,-3.83,0.05,4.28
13.413110971450806,-1.65,-1.68,-2.91,3.74
13.41723084449768,-0.47,-0.68,-5.24,5.3
13.420439958572388,1.83,-1.22,-5.68,6.09
13.422713041305542,4.77,-2.09,-4.84,7.1
13.438417911529541,8.36,-2.38,-2.95,9.17
13.440778970718384,10.87,-2.45,-0.4,11.14
13.509690046310425,10.59,-1.79,1.39,10.82
13.512638807296753,7.59,0.08,1.6,7.75
13.514892816543579,4.44,2.03,1.27,5.04
13.518517971038818,2.01,3.38,0.69,3.99
13.520801782608032,-0.29,4.08,0.99,4.2
13.524841070175171,-2.4,4.43,2.29,5.53
13.528681993484497,-4.37,4.75,3.56,7.37
13.532723903656006,-6.27,5.32,4.24,9.25
13.53684401512146,-7.83,6.36,3.93,10.82
13.539273977279663,-8.57,7.67,3.32,11.97
13.609211921691895,-8.01,8.5,3.37,12.15
13.612128973007202,-6.6,8.56,3.73,11.43
13.614343881607056,-5.06,7.84,4.19,10.22
13.618050813674927,-3.45,7.04,4.14,8.86
13.621764898300171,-2.69,6.81,3.66,8.18
13.624010801315308,-2.44,6.99,2.69,7.87
13.639230966567993,-2.34,7.37,2.28,8.06
13.64163613319397,-1.83,7.69,2.02,8.15
13.6454918384552,-1.28,7.99,1.8,8.28
13.649585008621216,-0.89,8.11,1.47,8.29
13.719735860824585,-0.46,7.89,1.1,7.97
13.722304105758667,0.12,7.61,0.53,7.62
13.72457480430603,0.82,7.32,-0.08,7.36
13.728380918502808,1.56,6.97,-0.16,7.14
13.732403039932251,2.29,6.43,0.16,6.82
13.736681938171387,2.94,5.56,0.36,6.29
13.739223957061768,3.56,4.51,0.23,5.75
13.743330955505371,4.01,3.54,-0.13,5.35
13.747365951538086,4.39,3.08,-0.27,5.36
13.751392126083374,4.83,2.97,-0.23,5.67
13.754071950912476,5.42,3.14,-0.47,6.28
13.823121786117554,5.83,3.21,-0.86,6.71
13.826098918914795,5.63,2.96,-1.05,6.44
13.828420877456665,5.21,2.56,-0.95,5.88
13.832113981246948,4.69,2.57,-0.64,5.38
13.836754083633423,4.09,3.04,-0.41,5.11
13.839262008666992,3.57,3.96,-0.31,5.34
13.842741966247559,3.02,5.28,-0.87,6.14
13.846794843673706,1.99,5.65,-3.05,6.72
13.850887060165405,-0.27,-3.82,-8.54,9.35
13.854576826095581,-4.15,-37.52,-22.59,43.99
13.919349908828735,-0.29,-34.41,-12.38,36.57
13.922225952148438,16.31,-8.15,24.15,30.25
13.924511909484863,19.38,-2.63,13.58,23.81
13.928261041641235,10.75,6.36,-8.41,15.05
13.932366132736206,1.33,13.9,-10.98,17.76
13.935293912887573,-3.64,15.99,-4.4,16.97
13.937586069107056,-3.3,12.13,0.52,12.58
13.9407320022583,-2.66,3.3,0.96,4.34
13.944702863693237,-3.45,-9.92,-0.95,10.54
13.948570966720581,-3.06,-17.29,1.06,17.59
14.015641927719116,0.39,-6.43,3.62,7.38
14.018126010894775,3.82,1.6,-0.53,4.17
14.020756006240845,5.21,2.55,-4.22,7.17
14.023352861404419,3.87,2.3,-2.72,5.25
14.038963079452515,2.54,2.09,0.25,3.29
14.041359901428223,3.26,1.21,0.14,3.48
14.044665098190308,4.23,0.09,-1.67,4.54
14.047580003738403,4.11,-0.32,-1.61,4.42
14.051491975784302,3.48,-0.41,-0.78,3.58
14.055115938186646,2.5,-0.29,-0.68,2.6
14.121114015579224,1.04,0.13,-0.64,1.22
14.124151945114136,-0.35,0.42,-0.4,0.67
14.126429796218872,-0.79,0.48,-0.27,0.96
14.130164861679077,-0.4,0.33,-0.37,0.63
14.134247064590454,0.07,-0.08,-0.31,0.32
14.137277841567993,0.03,-0.32,-0.57,0.65
14.139819860458374,-0.32,-0.29,-0.94,1.03
14.155944108963013,-0.88,0.14,-1.18,1.47
14.158317804336548,-1.23,0.69,-1.0,1.72
14.162161111831665,-1.27,0.89,-0.78,1.73
14.230377912521362,-1.1,0.7,-0.36,1.35
14.233556032180786,-1.07,0.44,0.15,1.16
14.236130952835083,-1.4,0.27,0.87,1.67
14.238835096359253,-1.91,0.34,1.63,2.53
14.242837905883789,-2.37,0.53,1.86,3.05
14.24677300453186,-2.55,0.53,1.34,2.92
14.249499082565308,-2.63,0.22,0.86,2.77
14.252233982086182,-2.6,-0.05,0.79,2.71
14.254496812820435,-2.4,-0.15,0.91,2.57
14.257385969161987,-2.41,-0.08,0.6,2.48
14.32579779624939,-2.27,-0.13,0.18,2.28
14.328783988952637,-1.93,-0.72,-0.28,2.07
14.330894947052002,-1.93,-1.47,-0.1,2.42
14.334494829177856,-1.51,-1.96,0.48,2.52
14.33744192123413,-0.97,-2.06,0.73,2.39
14.339985132217407,-0.99,-1.98,0.45,2.25
14.356284856796265,-1.29,-1.78,-0.19,2.2
14.358644008636475,-1.48,-1.47,-0.34,2.11
14.362230062484741,-1.19,-1.11,-0.87,1.84
14.365137815475464,-0.42,-1.27,-1.72,2.17
14.43427586555481,0.47,-2.29,-0.99,2.53
14.436794996261597,1.04,-3.47,-0.22,3.62
14.439296007156372,1.43,-4.43,0.13,4.65
14.443413019180298,1.4,-5.58,0.81,5.8
14.447423934936523,0.23,-6.77,0.29,6.78
14.451494932174683,-0.74,-7.36,-0.52,7.41
14.455259084701538,-0.75,-7.56,1.27,7.7
14.457436800003052,-0.56,-8.32,2.99,8.85
14.471320867538452,-0.61,-9.86,2.43,10.17
14.473697900772095,-1.1,-10.51,1.17,10.63
14.544119119644165,-0.97,-10.42,0.54,10.47
14.547027826309204,-0.78,-8.74,0.25,8.77
14.549247026443481,-2.46,-3.86,0.64,4.62
14.552997827529907,-4.99,-0.37,-0.4,5.01
14.555478811264038,-6.06,-2.41,-2.77,7.08
14.559044122695923,-5.75,-8.46,-3.99,10.97
14.563110113143921,-6.77,-13.18,-3.07,15.13
14.567120790481567,-8.95,-13.8,-0.69,16.46
14.570684909820557,-9.05,-12.75,0.76,15.65
14.573018789291382,-5.63,-11.04,-0.62,12.4
14.576645135879517,-1.75,-9.04,-1.62,9.34
14.646420001983643,1.11,-7.46,-2.66,7.99
14.649379014968872,2.76,-5.85,-4.32,7.77
14.65167498588562,3.97,-4.76,-5.38,8.2
14.654011011123657,5.5,-3.81,-4.88,8.28
14.657735109329224,6.95,-2.61,-2.49,7.83
14.661771059036255,6.96,-1.85,-0.6,7.22
14.665832996368408,4.88,-2.18,-0.72,5.39
14.669800043106079,2.21,-2.84,-0.8,3.68
14.672252893447876,-0.76,-3.29,0.59,3.42
14.675827980041504,-4.53,-2.7,3.13,6.13
14.746027946472168,-8.32,-0.54,4.42,9.43
14.748991966247559,-11.3,2.47,4.04,12.25
14.75123381614685,-12.97,5.37,3.2,14.39
14.753516912460327,-13.44,7.69,2.96,15.76
14.757517099380493,-13.01,9.19,3.36,16.27
14.761573076248169,-12.14,9.58,3.86,15.93
14.765654802322388,-11.22,9.16,3.4,14.87
14.769521951675415,-10.4,8.57,3.16,13.84
14.77183198928833,-9.82,8.13,2.87,13.06
14.775434017181396,-9.16,7.72,3.11,12.37
14.84622597694397,-8.78,7.68,3.25,12.1
14.849212884902954,-8.68,8.13,3.0,12.26
14.851459980010986,-8.29,8.76,2.58,12.33
14.853709936141968,-7.59,9.2,2.67,12.22
14.857863903045654,-6.71,9.54,2.91,12.02
14.861937999725342,-5.48,9.84,2.31,11.49
14.866008996963501,-4.17,9.95,1.2,10.85
14.870567083358765,-2.37,10.24,0.45,10.52
14.873232126235962,0.47,10.62,0.17,10.63
14.87636399269104,4.13,10.42,0.28,11.21
14.947719812393188,7.69,9.44,-0.54,12.18
14.950823068618774,10.02,7.79,-3.08,13.06
14.953057050704956,10.91,6.04,-5.7,13.71
14.955519914627075,11.27,4.75,-6.18,13.7
14.9737069606781,12.01,4.82,-4.96,13.85
14.976210832595825,13.1,6.22,-4.6,15.21
14.98031997680664,13.71,7.22,-10.83,18.9
14.984498977661133,16.85,4.11,-27.67,32.65
14.987493991851807,28.17,-18.46,-25.22,42.07
14.989743947982788,22.55,-43.54,10.31,50.1
15.0709068775177,-1.2,-22.76,29.14,36.99
15.073521852493286,-10.83,-1.0,3.83,11.53
15.075783014297485,-15.73,7.95,-18.62,25.63
15.079522848129272,-14.93,12.14,-4.55,19.77
15.083630800247192,-8.22,12.39,11.3,18.67
15.087616920471191,-3.51,9.1,7.27,12.16
15.090497970581055,-2.03,3.1,-1.94,4.18
15.093561887741089,-0.83,-4.77,-4.5,6.6
15.097630977630615,2.87,-10.75,0.71,11.14
15.100588083267212,8.05,-6.79,1.92,10.7
15.169738054275513,11.42,-0.55,-3.66,12.0
15.172354936599731,11.14,1.75,-7.57,13.58
15.175935983657837,8.16,2.66,-4.98,9.92
15.180025815963745,4.69,2.46,-1.15,5.41
15.184059858322144,2.88,0.49,-1.35,3.21
15.1876859664917,1.82,-1.29,-2.11,3.07
15.19051194190979,0.68,-1.28,-0.55,1.55
15.194567918777466,-0.12,-0.32,1.49,1.52
15.198628902435303,-0.47,0.09,1.22,1.31
15.202553987503052,-0.71,-0.04,0.21,0.74
15.271852016448975,-0.69,-0.14,-0.02,0.7
15.274796962738037,-0.32,-0.36,-0.24,0.53
15.277110815048218,0.53,-0.74,-0.76,1.18
15.28085207939148,1.0,-0.99,-1.48,2.04
15.284862995147705,1.03,-0.67,-1.91,2.27
15.287762880325317,0.75,-0.07,-1.92,2.06
15.290208101272583,0.07,0.59,-1.49,1.6
15.306733846664429,-0.9,0.94,-0.98,1.62
15.309108018875122,-1.92,0.86,-0.72,2.22
15.312366962432861,-2.87,0.79,-0.05,2.97
15.38305401802063,-3.79,0.97,0.86,4.0
15.38602089881897,-4.12,1.3,1.53,4.58
15.388319969177246,-3.66,1.4,1.82,4.32
15.391238927841187,-2.81,0.79,1.95,3.51
15.395319938659668,-2.18,-0.31,1.96,2.94
15.398249864578247,-2.34,-1.27,1.73,3.17
15.401201963424683,-3.19,-1.46,0.7,3.57
15.404575109481812,-3.97,-0.93,0.04,4.07
15.406826972961426,-3.74,-0.43,-0.37,3.78
15.4215669631958,-2.9,-0.44,-0.37,2.95
15.423793077468872,-1.41,-0.73,-0.46,1.65
15.495000123977661,-0.13,-1.33,-0.48,1.41
15.498044967651367,0.3,-2.17,-0.66,2.28
15.500346899032593,0.68,-3.02,-1.34,3.37
15.504508972167969,0.78,-3.47,-1.27,3.77
15.507802963256836,0.32,-3.77,-1.02,3.91
15.511721849441528,0.01,-4.82,-1.61,5.08
15.515825033187866,0.04,-6.18,-1.42,6.34
15.519749879837036,0.39,-7.22,0.57,7.25
15.522119998931885,0.94,-7.94,1.67,8.16
15.525768995285034,1.23,-8.8,2.32,9.18
15.597925901412964,0.77,-9.3,3.16,9.85
15.60093379020691,-0.51,-10.06,4.0,10.83
15.603166818618774,-2.18,-10.0,4.13,11.03
15.605523824691772,-3.8,-7.97,3.01,9.32
15.60967493057251,-5.4,-5.34,1.06,7.66
15.61365795135498,-6.94,-4.0,-1.11,8.08
15.61660885810852,-7.16,-5.5,-3.13,9.55
15.620996952056885,-6.68,-9.34,-3.64,12.04
15.623597860336304,-7.25,-12.42,-2.78,14.64
15.626900911331177,-8.29,-13.31,-1.62,15.76
15.699644804000854,-7.71,-13.14,-0.75,15.25
15.702723979949951,-4.69,-12.09,-1.24,13.02
15.705107927322388,-0.91,-10.0,-1.47,10.14
15.707699060440063,1.45,-8.06,-2.24,8.49
15.723936796188354,2.57,-6.12,-4.39,7.95
15.726381063461304,3.95,-4.69,-7.54,9.71
15.730231046676636,6.01,-4.07,-9.1,11.64
15.734318017959595,8.1,-3.68,-6.36,10.93
15.737795114517212,8.88,-2.74,-1.61,9.43
15.740118980407715,6.64,-1.72,0.34,6.86
15.81355094909668,3.03,-1.55,-0.72,3.47
15.81645393371582,0.23,-2.15,-1.04,2.39
15.818692922592163,-2.73,-2.24,1.09,3.69
15.820995092391968,-6.01,-0.82,3.96,7.24
15.824809789657593,-9.21,1.85,5.32,10.79
15.828877925872803,-11.94,4.83,4.84,13.75
15.83296513557434,-13.97,7.55,3.81,16.33
15.83693790435791,-15.32,9.8,3.07,18.44
15.839221954345703,-15.6,11.5,3.23,19.64
15.842960119247437,-14.69,12.43,3.53,19.56
15.91739797592163,-13.15,12.23,3.21,18.24
15.921473979949951,-11.88,11.1,2.6,16.46
15.924250841140747,-10.77,9.47,1.86,14.46
15.928242921829224,-9.56,8.15,2.35,12.78
15.932204008102417,-8.36,7.57,2.07,11.46
15.936364889144897,-7.09,7.67,1.72,10.58
15.938756942749023,-5.86,8.14,1.04,10.08
15.942851781845093,-4.73,8.72,1.0,9.97
15.946894884109497,-3.6,9.41,1.36,10.16
15.949818849563599,-1.91,9.83,1.06,10.06
16.025144815444946,0.15,9.91,0.42,9.92
16.027667999267578,2.6,10.02,-0.78,10.38
16.031312942504883,5.21,10.12,-2.2,11.59
16.035409927368164,7.27,9.94,-3.47,12.79
16.038277864456177,8.73,9.39,-4.62,13.62
16.040754079818726,10.24,8.31,-5.49,14.28
16.05673098564148,12.06,6.84,-5.69,14.98
16.059137105941772,13.72,5.91,-5.32,15.85
16.06263279914856,14.25,6.8,-5.0,16.56
16.066699981689453,13.59,9.6,-11.15,20.02
16.142471075057983,14.95,8.9,-22.17,28.18
16.14492893218994,22.22,-8.92,-9.93,25.92
16.14854598045349,17.04,-35.95,14.38,42.3
16.152727842330933,0.04,-40.57,13.08,42.62
16.156392812728882,-8.18,-16.64,-5.78,19.42
16.158626794815063,-10.11,4.66,-4.88,12.15
16.173362016677856,-11.05,9.81,6.06,15.97
16.175769090652466,-9.22,12.52,-0.5,15.55
16.179327964782715,-5.76,13.19,-2.27,14.57
16.183324098587036,-1.76,10.06,2.47,10.5
16.26028609275818,0.39,3.8,1.61,4.14
16.262876987457275,3.65,-7.44,-1.51,8.42
16.26645302772522,7.36,-14.42,-4.92,16.92
16.27046799659729,9.33,-6.12,-3.63,11.73
16.27281093597412,10.22,2.04,-2.34,10.68
16.276524782180786,8.82,3.89,-2.33,9.91
16.280514001846313,5.54,3.39,-2.03,6.8
16.284653902053833,2.92,1.75,-0.44,3.43
16.28830885887146,1.5,-0.27,0.61,1.64
16.290705919265747,0.35,-1.32,0.98,1.68
16.294148921966553,-0.91,-1.07,1.01,1.73
16.37062692642212,-1.89,-0.62,0.97,2.21
16.373546838760376,-2.21,-0.82,-0.04,2.35
16.375752925872803,-1.96,-0.96,-0.82,2.33
16.3796808719635,-1.41,-0.57,-1.13,1.89
16.383687019348145,-0.95,-0.05,-1.28,1.59
16.38662099838257,-0.61,0.27,-1.16,1.33
16.38886594772339,-0.79,0.23,-1.07,1.34
16.392961978912354,-1.61,-0.1,-1.08,1.94
16.39702010154724,-2.53,-0.17,-0.68,2.62
16.400974988937378,-3.44,0.18,-0.22,3.45
16.47622299194336,-3.43,0.71,0.37,3.52
16.478662967681885,-2.71,0.96,1.38,3.18
16.4822039604187,-1.96,0.63,2.14,2.96
16.486210107803345,-1.51,-0.05,2.26,2.71
16.489104986190796,-1.65,-0.47,1.87,2.53
16.491302013397217,-2.03,-0.54,1.05,2.34
16.50763487815857,-2.19,-0.66,0.42,2.32
16.510020971298218,-2.2,-0.73,-0.19,2.32
16.51354479789734,-1.64,-0.31,-0.89,1.89
16.517578840255737,-0.53,0.04,-0.55,0.76
16.593454122543335,0.11,-0.38,0.15,0.42
16.59605383872986,-0.34,-1.48,-0.43,1.57
16.599651098251343,-1.15,-2.19,-1.73,3.01
16.60366702079773,-1.1,-2.07,-1.62,2.84
16.605951070785522,-0.39,-1.61,-0.87,1.87
16.609822988510132,0.37,-1.46,-1.11,1.87
16.613701105117798,1.58,-2.31,-0.3,2.81
16.61782693862915,2.75,-3.86,0.65,4.78
16.621511936187744,2.64,-5.33,1.0,6.03
16.624046087265015,1.32,-6.45,0.57,6.6
16.7009060382843,0.01,-6.87,-0.25,6.87
16.704368829727173,-0.94,-7.05,0.78,7.15
16.70691704750061,-1.06,-7.67,1.77,7.94
16.710872888565063,-0.3,-9.06,3.1,9.58
16.714963912963867,0.06,-10.81,3.35,11.31
16.719183921813965,-1.66,-9.85,3.32,10.52
16.72211480140686,-4.69,-5.64,2.56,7.76
16.724304914474487,-7.91,-2.47,0.39,8.29
16.739888906478882,-9.34,-2.68,-1.85,9.89
16.74235701560974,-8.69,-5.48,-2.43,10.55
16.81914782524109,-7.34,-8.79,-1.35,11.53
16.822139978408813,-6.92,-10.73,-0.59,12.78
16.82440209388733,-8.18,-10.81,-0.95,13.58
16.828218936920166,-8.3,-11.16,-0.83,13.93
16.832228899002075,-5.53,-12.11,-0.65,13.32
16.836350917816162,-2.42,-11.78,-1.87,12.17
16.840121030807495,-0.39,-9.57,-2.16,9.81
16.842347860336304,1.23,-6.95,-2.2,7.39
16.85692000389099,2.23,-5.05,-4.19,6.93
16.8592369556427,3.58,-4.7,-7.26,9.36
16.93713092803955,5.39,-4.96,-9.0,11.6
16.940070867538452,6.63,-4.27,-6.73,10.36
16.942304849624634,7.04,-2.97,-1.9,7.87
16.94618797302246,5.21,-1.65,0.84,5.52
16.95029091835022,1.8,-0.95,-0.09,2.03
16.954833984375,-0.75,-1.07,-1.4,1.91
16.957314014434814,-2.77,-1.01,-0.55,2.99
16.961410999298096,-5.0,-0.16,2.16,5.44
16.96551012992859,-7.45,1.61,4.49,8.84
16.969599962234497,-9.91,3.89,4.94,11.73
17.04691481590271,-12.13,6.11,3.67,14.06
17.049486875534058,-13.56,8.34,1.67,16.0
17.053133964538574,-14.01,10.23,1.23,17.39
17.05690097808838,-13.26,11.25,2.01,17.5
17.05923581123352,-11.79,11.21,3.05,16.55
17.073625802993774,-10.46,10.36,3.08,15.04
17.076069116592407,-9.65,9.17,2.33,13.51
17.079401969909668,-8.9,8.09,1.54,12.12
17.083456993103027,-8.15,7.51,1.98,11.25
17.08761191368103,-7.64,7.69,2.11,11.04
17.163177013397217,-6.67,8.19,1.49,10.66
17.16613507270813,-6.02,9.22,0.7,11.03
17.16850209236145,-5.33,10.09,0.37,11.41
17.17225694656372,-3.92,10.56,0.33,11.26
17.17489504814148,-1.81,10.86,-0.17,11.01
17.178072929382324,0.8,10.95,-0.91,11.01
17.18076491355896,3.9,10.64,-1.3,11.4
17.18484902381897,7.04,9.93,-1.75,12.29
17.18845009803772,9.41,8.73,-2.44,13.06
17.190945863723755,10.35,7.21,-3.24,13.02
17.195074796676636,10.28,5.89,-3.92,12.47
17.272861003875732,10.39,5.2,-3.88,12.24
17.275852918624878,11.12,5.75,-3.94,13.12
17.278055906295776,12.33,7.06,-4.27,14.83
17.281826972961426,12.87,8.53,-8.55,17.64
17.285938024520874,13.78,7.49,-20.46,25.77
17.288956880569458,22.26,-18.66,-15.35,32.85
17.29132890701294,22.54,-66.84,8.66,71.06
17.30691885948181,4.14,-33.99,29.84,45.41
17.309314966201782,-3.85,3.72,7.36,9.1
17.312798976898193,-10.92,12.06,-21.19,26.71
17.39050793647766,-18.06,14.85,-15.21,27.89
17.393505811691284,-15.15,18.16,-1.51,23.69
17.395718812942505,-6.97,16.39,9.4,20.13
17.39938998222351,-3.67,9.7,9.02,13.74
17.40345597267151,-0.07,-2.32,2.7,3.56
17.407129049301147,6.24,-21.81,-2.39,22.81
17.40932011604309,10.25,-18.42,-1.53,21.13
17.42477011680603,11.32,-0.84,-1.54,11.45
17.427214860916138,11.69,5.5,-4.28,13.6
17.43133807182312,8.5,6.07,-3.63,11.05
17.509042978286743,4.22,4.47,-0.39,6.15
17.51199984550476,1.68,0.99,-0.15,1.95
17.514167070388794,0.81,-2.01,-1.38,2.56
17.523680925369263,0.38,-2.45,-0.74,2.58
17.526018857955933,-0.09,-1.04,0.05,1.04
17.529597997665405,-0.65,0.06,-0.36,0.74
17.53371000289917,-0.93,0.22,-0.64,1.15
17.537666082382202,-1.1,-0.1,-0.08,1.1
17.539933919906616,-0.9,-0.37,-0.35,1.03
17.54367995262146,-0.05,-0.66,-0.98,1.18
17.621805906295776,0.74,-0.97,-1.4,1.85
17.624711990356445,0.92,-0.82,-1.54,1.97
17.626922845840454,0.68,-0.22,-1.36,1.53
17.630665063858032,0.03,0.35,-1.17,1.22
17.634660005569458,-0.82,0.95,-0.68,1.42
17.637489080429077,-1.57,1.51,0.35,2.2
17.639771938323975,-2.14,1.62,1.21,2.94
17.643462896347046,-2.6,1.26,1.72,3.36
17.64749503135681,-3.19,0.72,1.73,3.69
17.65155792236328,-3.8,0.26,1.65,4.15
17.727760076522827,-3.97,-0.06,1.47,4.23
17.73033094406128,-3.85,0.01,1.33,4.07
17.733822107315063,-3.7,0.31,1.22,3.9
17.737849950790405,-2.95,0.4,1.03,3.15
17.74021291732788,-1.98,0.03,0.97,2.2
17.744202852249146,-1.7,-0.53,0.6,1.87
17.748224020004272,-1.73,-0.79,0.19,1.91
17.752236127853394,-1.41,-0.48,-0.15,1.49
17.755512952804565,-0.74,-0.14,-0.03,0.75
17.75806498527527,-0.23,-0.53,0.85,1.02
17.846446990966797,0.3,-1.17,1.25,1.73
17.848886966705322,0.8,-1.39,0.19,1.61
17.851154088974,1.24,-1.43,-0.54,1.96
17.85543394088745,1.17,-1.59,-1.49,2.47
17.85819101333618,0.51,-1.85,-2.41,3.08
17.861418962478638,0.24,-2.38,-2.8,3.68
17.86546778678894,0.4,-3.51,-1.77,3.95
17.86956286430359,0.59,-5.08,-1.32,5.28
17.873459100723267,1.29,-6.22,-1.36,6.49
17.875707864761353,1.91,-6.25,-0.64,6.56
17.9639949798584,2.48,-6.41,0.59,6.89
17.966431856155396,2.81,-6.46,1.78,7.26
17.968754053115845,2.5,-7.18,2.12,7.89
17.972180128097534,1.49,-8.64,1.32,8.86
17.974913835525513,0.44,-9.92,0.69,9.95
17.978140115737915,-0.04,-9.87,0.37,9.87
17.98218607902527,-1.36,-6.45,1.11,6.68
17.986249923706055,-3.82,-1.44,0.36,4.09
17.99001693725586,-5.95,0.76,-1.27,6.13
17.99226212501526,-6.77,-1.12,-1.85,7.1
18.079843997955322,-6.25,-5.91,-1.6,8.74
18.082524061203003,-6.61,-10.09,-0.87,12.09
18.084830045700073,-8.88,-10.37,-0.54,13.66
18.08888602256775,-8.48,-9.27,-0.25,12.56
18.09162402153015,-3.63,-8.85,-0.1,9.56
18.094759941101074,0.13,-9.24,-0.14,9.24
18.098788022994995,1.39,-9.33,-0.84,9.47
18.10281491279602,2.06,-7.85,-0.32,8.12
18.106560945510864,1.98,-5.33,-0.13,5.68
18.108824968338013,1.52,-2.98,-1.93,3.86
18.12298607826233,1.62,-1.7,-3.4,4.13
18.20072293281555,2.01,-1.32,-3.21,4.01
18.203706979751587,2.16,-1.49,-1.5,3.02
18.206001043319702,1.35,-1.61,0.84,2.26
18.20851492881775,-0.63,-1.65,2.28,2.88
18.223583936691284,-2.92,-1.42,2.68,4.21
18.225971937179565,-4.95,-0.69,3.13,5.89
18.229488134384155,-6.84,0.55,3.98,7.93
18.23245882987976,-8.68,2.07,4.71,10.09
18.236552000045776,-10.44,3.65,4.95,12.11
18.239054918289185,-11.93,5.22,5.03,13.95
18.31488800048828,-13.14,6.67,5.22,15.63
18.317960023880005,-13.95,7.67,5.37,16.8
18.32029390335083,-14.31,7.83,5.16,17.1
18.32264995574951,-14.01,7.12,5.34,16.59
18.32629704475403,-13.18,6.07,5.63,15.56
18.329134941101074,-11.74,5.07,5.91,14.08
18.333184957504272,-10.59,4.81,5.88,13.03
18.3372061252594,-9.74,4.98,5.61,12.29
18.341004133224487,-9.04,5.16,5.05,11.56
18.343217134475708,-8.55,5.44,4.72,11.17
18.430102109909058,-7.79,5.31,4.23,10.33
18.432668924331665,-7.01,5.03,3.77,9.41
18.434961080551147,-6.13,4.79,3.26,8.43
18.439031839370728,-4.66,4.27,2.53,6.8
18.441679000854492,-2.91,3.62,1.76,4.96
18.44505000114441,-1.03,2.8,0.76,3.07
18.447962999343872,1.09,2.01,-0.04,2.28
18.45202898979187,3.52,1.48,-0.38,3.83
18.455668926239014,5.83,1.51,-0.21,6.02
18.458167791366577,7.71,1.91,-0.69,7.97
18.534812927246094,8.72,2.33,-1.5,9.14
18.537770986557007,9.21,1.59,-1.69,9.49
18.540088891983032,9.34,-0.29,-2.0,9.55
18.544187784194946,8.6,-2.69,-2.46,9.34
18.547181844711304,8.17,-5.26,-2.84,10.12
18.551230907440186,8.74,-7.85,-3.45,12.24
18.555693864822388,11.03,-9.8,-3.85,15.24
18.558198928833008,13.33,-9.7,-2.59,16.68
18.56152606010437,13.73,-7.37,0.03,15.58
18.565574884414673,12.36,-8.11,0.26,14.78
18.642940998077393,13.47,-16.04,3.23,21.19
18.645905017852783,15.45,-24.31,-4.87,29.21
18.64816689491272,-2.47,-17.15,-5.31,18.12
18.65863013267517,-28.7,-8.17,12.3,32.27
18.661096811294556,-22.71,-4.16,22.22,32.04
18.664788007736206,-5.49,3.71,14.09,15.57
18.668805837631226,-2.78,8.77,0.7,9.22
18.67249298095703,-0.68,8.83,-4.45,9.91
18.675039052963257,4.24,5.65,-8.91,11.37
18.678407907485962,7.87,1.44,-11.0,13.6
18.7567298412323,8.14,-1.62,-7.15,10.95
18.759696006774902,6.03,-1.16,-3.65,7.14
18.76192879676819,6.21,1.13,-5.59,8.43
18.765618085861206,8.8,2.51,-5.75,10.8
18.769767999649048,9.91,2.24,-0.45,10.16
18.772964000701904,7.46,0.97,4.31,8.66
18.775501012802124,3.32,-1.02,3.76,5.11
18.791332960128784,-1.06,-2.97,1.16,3.36
18.793709993362427,-5.42,-3.18,-0.56,6.3
18.797314882278442,-7.58,-1.58,-0.37,7.75
18.875436067581177,-6.05,0.29,0.16,6.05
18.878293991088867,-2.49,1.02,-0.01,2.69
18.880511045455933,0.63,0.71,-0.4,1.03
18.884145975112915,2.73,0.27,-1.05,2.93
18.888070821762085,3.71,0.07,-1.25,3.91
18.890386819839478,3.61,0.18,-1.31,3.84
18.894235849380493,2.77,0.33,-0.81,2.9
18.89828610420227,1.49,0.45,-0.22,1.57
18.902304887771606,0.03,0.29,-0.25,0.38
18.905860900878906,-1.06,0.04,-0.34,1.11
18.981313943862915,-1.92,-0.13,-0.39,1.96
18.984261989593506,-2.46,-0.3,-0.29,2.49
18.98659586906433,-2.65,-0.45,0.1,2.68
18.98986792564392,-2.51,-0.5,0.38,2.58
18.992407083511353,-2.06,-0.6,0.67,2.24
19.008227109909058,-1.83,-0.58,0.68,2.03
19.01062512397766,-1.77,-0.48,0.24,1.84
19.01445984840393,-1.58,-0.38,0.2,1.63
19.018572092056274,-1.44,-0.22,0.13,1.46
19.022661924362183,-1.4,-0.1,0.02,1.4
19.024887800216675,-1.18,0.04,0.14,1.18
19.10173010826111,-0.77,-0.01,0.59,0.97
19.104636907577515,-0.28,-0.15,0.88,0.93
19.106952905654907,0.03,-0.03,0.25,0.25
19.111083984375,0.08,0.11,-0.92,0.93
19.115108013153076,0.22,-0.31,-0.81,0.89
19.119198083877563,0.45,-0.92,0.38,1.09
19.122792959213257,0.49,-1.11,0.9,1.51
19.125102996826172,0.29,-1.3,1.07,1.7
19.128684997558594,-0.09,-1.61,1.23,2.02
19.132457971572876,-0.64,-1.84,1.48,2.44
19.209844827651978,-1.23,-2.06,1.13,2.65
19.21280598640442,-1.62,-2.43,0.85,3.04
19.21507692337036,-1.83,-2.92,0.94,3.57
19.22491693496704,-1.74,-3.42,0.26,3.84
19.227317094802856,-1.87,-4.12,0.3,4.53
19.230857133865356,-2.24,-5.92,0.48,6.34
19.23485493659973,-2.85,-8.95,0.08,9.39
19.239388942718506,-4.23,-12.66,0.36,13.35
19.24193501472473,-6.26,-15.81,0.78,17.02
19.24522089958191,-7.75,-15.97,1.98,17.86
19.322287797927856,-7.58,-12.74,3.58,15.25
19.325316905975342,-6.01,-8.8,2.82,11.02
19.327538013458252,-4.92,-6.06,0.93,7.86
19.33126187324524,-3.99,-4.34,-0.14,5.89
19.33538293838501,-2.86,-3.2,0.22,4.29
19.33936905860901,-2.21,-2.85,0.93,3.72
19.342182874679565,-1.77,-2.76,1.42,3.57
19.345309019088745,-1.38,-1.87,1.82,2.95
19.34937596321106,-1.34,-0.26,1.34,1.91
19.353451013565063,-1.7,1.5,0.24,2.27
19.430733919143677,-1.94,2.85,-0.21,3.45
19.43326997756958,-1.54,3.96,-0.66,4.29
19.43686604499817,-0.86,4.92,-0.42,5.01
19.43991494178772,-0.71,5.18,0.87,5.3
19.442458868026733,-1.47,4.95,2.94,5.94
19.458589792251587,-2.6,4.67,4.96,7.29
19.46099591255188,-3.48,4.64,5.41,7.93
19.465112924575806,-4.29,4.96,4.3,7.84
19.469286918640137,-4.81,5.41,3.01,7.83
19.47286891937256,-5.04,5.83,2.22,8.01
19.548337936401367,-5.15,5.96,2.38,8.22
19.551275968551636,-5.22,5.51,3.3,8.27
19.5535728931427,-5.02,4.48,4.2,7.93
19.556819915771484,-4.52,3.16,4.53,7.13
19.559417963027954,-3.81,2.12,4.52,6.28
19.575196981430054,-2.92,1.91,4.3,5.53
19.577616930007935,-2.07,2.28,4.17,5.18
19.581627130508423,-1.25,2.51,4.07,4.94
19.58570694923401,-0.54,2.52,3.73,4.53
19.58860182762146,-0.17,2.28,3.33,4.03
19.663581132888794,0.03,1.7,3.31,3.72
19.666510820388794,0.57,0.81,3.47,3.6
19.66879391670227,1.57,-0.22,3.48,3.82
19.672592878341675,2.88,-1.13,3.06,4.35
19.676100969314575,4.19,-1.91,2.74,5.35
19.68023705482483,5.38,-2.69,2.41,6.47
19.6842200756073,6.61,-3.83,1.41,7.76
19.688225030899048,7.59,-5.03,0.05,9.1
19.692338943481445,7.35,-5.18,-0.97,9.04
19.69642186164856,6.87,-4.73,-1.3,8.44
19.773446798324585,7.08,-4.36,-1.19,8.39
19.776427030563354,8.11,-4.38,0.14,9.21
19.778650045394897,9.56,-4.64,2.3,10.87
19.782604932785034,10.22,-4.38,3.64,11.69
19.786597967147827,9.5,-3.85,3.49,10.82
19.789982080459595,7.9,-3.41,2.99,9.1
19.79253888130188,6.78,-3.2,2.85,8.02
19.808677911758423,7.29,-3.43,0.62,8.08
19.811100006103516,7.0,-3.93,-4.11,9.01
19.814533948898315,0.53,-4.8,-5.89,7.61
19.891023874282837,-9.45,-7.27,-3.44,12.4
19.893988847732544,-12.47,-8.81,1.06,15.3
19.896229028701782,-5.41,-5.59,4.23,8.85
19.89991784095764,2.06,0.05,3.16,3.77
19.904024839401245,6.27,2.85,2.01,7.17
19.90692901611328,8.77,2.41,1.62,9.23
19.909394025802612,8.41,1.35,2.26,8.81
19.926059007644653,4.61,1.62,4.15,6.41
19.928383111953735,0.49,2.01,2.81,3.48
19.932209968566895,-2.48,1.84,-3.87,4.95
19.93643879890442,-3.18,1.56,-10.26,10.85
20.01209282875061,-1.5,1.33,-8.95,9.17
20.014528036117554,1.35,0.84,-1.54,2.21
20.01677894592285,3.58,0.1,3.18,4.78
20.02041983604431,3.84,-0.53,2.16,4.43
20.023349046707153,2.31,-0.8,0.76,2.56
20.025884866714478,0.53,-0.69,1.11,1.41
20.042711973190308,-0.85,-0.7,0.88,1.4
20.04513382911682,-1.54,-0.85,-0.58,1.85
20.049211978912354,-1.5,-0.79,-1.77,2.45
20.052172899246216,-0.7,-0.35,-1.59,1.77
20.128493070602417,0.38,0.06,-0.77,0.86
20.131076097488403,1.17,0.16,-0.49,1.27
20.134674787521362,1.38,-0.01,-0.58,1.49
20.137715101242065,1.34,-0.21,-0.54,1.45
20.141621828079224,1.19,-0.13,-0.33,1.24
20.144355058670044,1.19,0.03,-0.43,1.26
20.15911078453064,1.1,0.11,-0.8,1.36
20.161401987075806,0.91,0.02,-1.0,1.35
20.164865016937256,0.49,0.1,-0.99,1.1
20.168880939483643,-0.11,0.28,-0.78,0.83
20.24373197555542,-0.72,0.24,-0.62,0.98
20.246168851852417,-1.15,0.02,-0.42,1.22
20.24976396560669,-1.69,-0.14,-0.23,1.71
20.253809928894043,-2.14,-0.17,-0.03,2.14
20.25673508644104,-2.44,-0.03,0.21,2.44
20.259226083755493,-2.7,0.15,0.48,2.74
20.275634050369263,-2.77,0.03,0.68,2.85
20.277946949005127,-2.77,-0.17,0.64,2.84
20.281279802322388,-2.61,-0.29,0.84,2.75
20.285444974899292,-2.25,-0.37,1.15,2.55
20.36212396621704,-1.91,-0.34,1.26,2.31
20.364543914794922,-1.82,-0.35,1.37,2.3
20.368067026138306,-2.04,-0.29,1.04,2.3
20.371930837631226,-2.15,-0.02,0.98,2.36
20.37425208091736,-1.95,-0.12,1.12,2.25
20.378082990646362,-1.67,-0.74,0.9,2.03
20.382179975509644,-1.25,-1.29,-0.32,1.82
20.38507103919983,-0.95,-2.0,-0.18,2.22
20.388957977294922,-0.6,-3.19,0.53,3.28
20.391223907470703,-0.27,-4.79,0.72,4.85
20.46729588508606,0.06,-7.49,0.23,7.49
20.47026801109314,0.31,-12.05,0.44,12.06
20.472503900527954,-0.75,-17.63,1.2,17.68
20.474847078323364,-3.74,-19.68,2.13,20.14
20.492219924926758,-5.88,-17.42,2.9,18.61
20.494624853134155,-6.07,-14.9,2.19,16.23
20.498191118240356,-6.8,-13.93,0.72,15.51
20.5023090839386,-7.8,-12.13,-0.8,14.44
20.50658893585205,-6.87,-6.38,0.39,9.38
20.508827924728394,-5.5,-0.95,1.67,5.82
20.58531093597412,-4.58,-0.27,0.75,4.64
20.588347911834717,-3.08,-3.15,-1.37,4.61
20.59061312675476,-1.24,-5.35,-3.1,6.3
20.593138933181763,1.11,-4.97,-3.57,6.21
20.609216928482056,4.77,-3.59,-2.72,6.56
20.611620903015137,8.89,-2.9,-2.26,9.62
20.61510992050171,11.9,-2.17,-1.85,12.23
20.61917281150818,11.38,-2.06,-0.7,11.58
20.622191905975342,6.59,-1.71,0.91,6.86
20.624445915222168,1.82,-0.68,1.59,2.51
20.700323820114136,-1.4,0.68,1.37,2.07
20.703274965286255,-3.96,1.86,1.26,4.55
20.705514907836914,-5.96,2.63,2.19,6.87
20.70783495903015,-7.25,3.46,3.3,8.68
20.710808038711548,-7.69,4.7,3.91,9.82
20.714771032333374,-7.22,6.24,3.59,10.19
20.71875309944153,-6.48,7.44,2.59,10.2
20.72326397895813,-5.85,8.02,1.85,10.09
20.725806951522827,-5.09,7.88,1.93,9.57
20.729161977767944,-4.15,7.31,2.65,8.81
20.804630041122437,-3.62,6.98,3.56,8.63
20.807549953460693,-3.54,6.96,3.41,8.52
20.809781789779663,-3.81,7.48,3.01,8.91
20.81352400779724,-4.12,8.15,2.84,9.56
20.817567110061646,-4.18,8.48,3.0,9.91
20.821578979492188,-3.98,8.75,3.21,10.13
20.824525117874146,-3.49,8.97,3.26,10.16
20.82672381401062,-2.69,8.82,3.13,9.73
20.84249496459961,-1.67,8.48,2.81,9.08
20.84490704536438,-0.64,7.99,2.3,8.33
20.848362922668457,0.33,7.55,1.96,7.8
20.924364805221558,1.55,7.07,1.65,7.42
20.92732882499695,3.11,6.35,0.94,7.13
20.929540872573853,4.77,5.27,-0.01,7.1
20.93342900276184,6.08,4.12,-0.41,7.35
20.937597036361694,7.22,3.05,-0.28,7.84
20.940444946289062,8.33,2.37,-0.38,8.66
20.94304895401001,8.95,2.2,-0.5,9.22
20.95978093147278,8.68,2.42,0.07,9.01
20.96217393875122,8.09,2.86,0.46,8.59
20.965988874435425,7.3,3.53,0.37,8.11
21.0430428981781,5.95,4.41,0.29,7.41
21.045986890792847,4.8,5.49,0.08,7.29
21.048210859298706,4.12,6.01,-1.81,7.5
21.051911115646362,2.92,3.39,-9.86,10.82
21.05579400062561,3.64,-24.02,-20.55,31.82
21.059679985046387,2.39,-58.52,-19.04,61.58
21.06380009651184,5.33,-16.53,23.92,29.56
21.06744694709778,6.01,2.57,23.92,24.79
21.069931983947754,4.42,5.84,-6.34,9.68
21.07352089881897,0.11,12.58,-16.01,20.36
21.148854970932007,-0.58,18.08,-8.79,20.11
21.151862859725952,2.15,16.21,3.89,16.8
21.154229879379272,1.64,8.11,5.77,10.08
21.157574892044067,-0.44,-3.55,0.76,3.65
21.160442113876343,-1.04,-17.42,-0.14,17.45
21.17702078819275,1.39,-13.29,2.75,13.64
21.17955493927002,5.58,-1.12,1.56,5.9
21.183571100234985,8.13,1.78,-3.09,8.87
21.18753409385681,5.74,2.63,-3.48,7.2
21.190683126449585,1.35,3.73,-0.47,3.99
21.265622854232788,-0.99,2.63,1.12,3.02
21.268590927124023,-0.65,-0.27,-1.17,1.36
21.2709059715271,0.45,-1.9,-3.02,3.59
21.274228811264038,0.97,-1.58,-1.66,2.48
21.276745080947876,1.15,-0.57,-0.38,1.33
21.292937994003296,1.26,0.07,-0.43,1.33
21.295135974884033,1.07,0.32,-0.73,1.33
21.29894995689392,0.73,0.19,-0.32,0.81
21.30162787437439,0.64,-0.4,0.05,0.75
21.30575680732727,0.68,-1.0,-0.16,1.21
21.380418062210083,0.43,-0.75,-0.86,1.21
21.383289098739624,-0.11,-0.21,-1.4,1.41
21.38559079170227,-0.81,0.01,-1.57,1.76
21.38909411430359,-1.31,0.16,-1.34,1.88
21.391385793685913,-1.53,0.36,-1.14,1.94
21.395267963409424,-1.46,0.5,-0.78,1.72
21.398077964782715,-1.33,0.46,-0.23,1.42
21.40205192565918,-1.35,0.38,0.18,1.41
21.405983924865723,-1.55,0.37,0.42,1.64
21.408385038375854,-1.9,0.13,0.55,1.98
21.483747959136963,-2.28,0.03,0.88,2.44
21.486747980117798,-2.35,0.35,0.98,2.57
21.488881826400757,-2.06,0.77,0.98,2.4
21.491111993789673,-1.67,0.82,1.12,2.17
21.494518041610718,-1.39,0.49,1.27,1.94
21.498555898666382,-1.36,0.14,0.76,1.56
21.502570867538452,-1.76,-0.01,0.16,1.76
21.507181882858276,-1.91,-0.23,-0.14,1.92
21.509702920913696,-1.78,-0.45,-0.02,1.83
21.51301407814026,-1.49,-0.33,-0.09,1.52
21.588581800460815,-0.65,-0.12,-0.17,0.68
21.59153699874878,0.28,-0.43,0.27,0.57
21.59376883506775,0.64,-0.94,0.21,1.15
21.59749698638916,0.32,-1.43,-0.02,1.46
21.60160994529724,-0.53,-1.81,-0.23,1.89
21.60569405555725,-1.44,-1.86,-0.68,2.44
21.60797381401062,-1.58,-1.68,-1.24,2.61
21.612051010131836,-1.17,-2.01,-0.77,2.44
21.616202116012573,-0.1,-3.15,-0.53,3.19
21.620227098464966,0.93,-4.21,-0.28,4.32
21.69603991508484,1.33,-4.99,-0.22,5.16
21.698468923568726,1.58,-5.6,-0.07,5.81
21.702057123184204,1.88,-5.82,0.68,6.15
21.70605993270874,2.39,-6.27,2.25,7.07
21.708399057388306,2.63,-7.93,2.79,8.8
21.712033987045288,1.97,-10.42,2.87,10.98
21.716073989868164,0.73,-11.97,2.42,12.23
21.720144987106323,-1.08,-9.77,1.42,9.93
21.723750829696655,-4.38,-3.36,0.82,5.58
21.72625994682312,-7.69,0.97,-0.29,7.75
21.729591131210327,-8.67,0.24,-1.3,8.77
21.806225061416626,-7.22,-4.63,-0.91,8.62
21.809159994125366,-6.55,-10.61,-0.84,12.49
21.811378955841064,-8.08,-13.6,-0.74,15.83
21.815124988555908,-8.35,-13.01,-0.03,15.45
21.819183111190796,-5.31,-11.77,-0.07,12.91
21.823925018310547,-2.26,-11.31,-1.13,11.58
21.826340913772583,-0.98,-10.8,-2.03,11.03
21.82982087135315,0.62,-9.31,-1.18,9.4
21.833805799484253,1.42,-6.96,-1.74,7.31
21.83804202079773,2.2,-5.25,-4.03,6.97
21.914652109146118,3.94,-4.86,-5.86,8.57
21.917042016983032,5.87,-5.18,-6.46,10.14
21.920614004135132,7.13,-4.91,-4.13,9.59
21.924235105514526,6.34,-4.47,-0.69,7.78
21.926958799362183,3.21,-4.46,0.87,5.56
21.93104100227356,-0.67,-4.2,1.22,4.42
21.93509292602539,-4.31,-3.24,1.56,5.61
21.939105987548828,-7.59,-1.25,2.14,7.98
21.94137406349182,-10.2,1.41,2.87,10.68
21.94538903236389,-12.12,3.88,3.63,13.23
22.022866010665894,-13.39,5.92,4.25,15.24
22.02584195137024,-13.83,7.69,4.45,16.43
22.028069972991943,-13.55,8.87,4.28,16.75
22.03176999092102,-12.96,9.26,4.25,16.48
22.03478693962097,-12.35,9.1,3.77,15.79
22.03889799118042,-11.65,8.76,3.57,15.0
22.04257297515869,-10.95,8.53,2.95,14.19
22.044785976409912,-9.98,8.2,2.48,13.15
22.059598922729492,-9.07,8.37,2.13,12.52
22.062055826187134,-7.94,8.53,1.49,11.74
22.13939094543457,-6.8,8.66,1.19,11.07
22.1425039768219,-5.56,8.68,1.41,10.4
22.14472794532776,-4.2,8.37,1.32,9.45
22.14851999282837,-2.77,8.19,0.87,8.68
22.1525719165802,-1.39,8.29,0.32,8.41
22.15647792816162,0.2,8.68,0.05,8.68
22.158788919448853,2.09,9.2,-0.26,9.43
22.162698984146118,4.72,9.35,-0.86,10.5
22.166757822036743,7.99,8.59,-1.91,11.88
22.170939922332764,10.41,6.73,-3.08,12.77
22.246964931488037,10.71,4.69,-4.52,12.53
22.24945092201233,10.6,3.73,-6.34,12.9
22.252991914749146,11.57,5.14,-7.83,14.88
22.257584810256958,12.97,7.46,-11.14,18.65
22.26028609275818,16.61,5.76,-22.02,28.17
22.26360011100769,28.53,-10.79,-21.17,37.12
22.267657041549683,27.07,-29.35,8.44,40.8
22.271777868270874,4.33,-17.96,23.59,29.96
22.27550196647644,-7.04,-5.19,-1.41,8.85
22.277726888656616,-13.68,0.92,-18.21,22.79
22.3648419380188,-15.62,5.08,-1.01,16.45
22.3674418926239,-8.71,8.51,8.73,14.98
22.36976408958435,-1.03,9.49,3.58,10.19
22.373387098312378,2.19,7.78,2.18,8.37
22.375635862350464,0.76,3.51,0.62,3.64
22.379371881484985,0.66,-4.16,0.03,4.21
22.3834388256073,3.47,-10.61,-2.94,11.54
22.38757300376892,6.1,-6.41,-4.59,9.96
22.391209840774536,8.36,-0.15,-3.68,9.13
22.393505811691284,8.55,2.28,-2.55,9.2
22.470005989074707,5.7,2.61,-1.94,6.56
22.47292685508728,2.72,1.13,-1.58,3.34
22.475332975387573,0.88,-0.56,-1.69,1.98
22.479506015777588,-0.11,-1.15,-1.33,1.76
22.483552932739258,-0.64,-0.78,-0.39,1.08
22.486554861068726,-0.94,-0.39,-0.03,1.01
22.489518880844116,-1.02,-0.57,-0.42,1.24
22.49184799194336,-0.7,-1.05,-0.68,1.43
22.495858907699585,-0.41,-1.2,-0.58,1.39
22.499993085861206,-0.13,-1.08,-0.61,1.24
22.576876878738403,-0.09,-0.71,-1.08,1.29
22.579903841018677,-0.11,-0.32,-1.43,1.46
22.582175970077515,-0.21,0.02,-1.2,1.21
22.585992097854614,-0.67,0.54,-0.61,1.05
22.589884996414185,-1.42,1.15,-0.01,1.82
22.592087984085083,-2.1,1.2,0.38,2.44
22.59591794013977,-2.74,0.83,0.73,2.95
22.599885940551758,-2.91,0.31,1.14,3.14
22.603994131088257,-2.85,-0.04,1.54,3.23
22.60762906074524,-3.21,0.05,1.89,3.72
22.610049962997437,-3.35,0.58,1.97,3.92
22.686203002929688,-2.72,1.05,1.5,3.27
22.689162015914917,-1.94,0.68,0.66,2.15
22.69140601158142,-1.66,-0.26,0.41,1.72
22.693937063217163,-2.07,-0.91,0.06,2.26
22.70989203453064,-2.64,-0.95,-1.03,2.98
22.71232008934021,-2.54,-0.59,-1.33,2.92
22.715726137161255,-1.85,-0.97,-0.35,2.11
22.719775915145874,-1.06,-2.01,0.49,2.32
22.722665071487427,-0.45,-2.32,0.53,2.42
22.725108861923218,0.4,-2.03,-0.16,2.07
22.799696922302246,1.22,-2.01,-0.43,2.39
22.802655935287476,1.12,-2.4,-0.58,2.71
22.804974794387817,0.28,-3.27,-0.99,3.42
22.80822992324829,-0.5,-3.69,-1.08,3.87
22.810781955718994,-0.66,-3.68,-0.52,3.77
22.827123880386353,-0.38,-3.75,-0.31,3.78
22.82953906059265,-0.29,-5.13,0.13,5.13
22.8333580493927,0.06,-7.87,1.31,7.97
22.83741784095764,0.51,-9.52,1.29,9.62
22.841020822525024,0.74,-10.34,2.56,10.67
22.916366815567017,0.22,-11.37,3.7,11.95
22.91957688331604,-1.51,-11.66,3.88,12.38
22.9219229221344,-3.92,-8.95,2.92,10.19
22.92424178123474,-6.19,-4.1,1.31,7.53
22.9274640083313,-7.45,-1.49,-0.54,7.61
22.931447982788086,-7.33,-2.07,-1.76,7.81
22.935521841049194,-6.1,-5.48,-2.11,8.46
22.93961191177368,-4.66,-10.05,-1.69,11.2
22.94190001487732,-4.71,-12.23,-1.27,13.16
22.9458110332489,-5.77,-11.41,-1.39,12.86
23.02305006980896,-6.14,-9.92,-1.91,11.82
23.026015043258667,-5.09,-8.89,-2.21,10.47
23.028226137161255,-2.55,-8.03,-1.46,8.55
23.03193688392639,-0.16,-7.43,-1.24,7.53
23.03608202934265,1.44,-6.48,-2.64,7.14
23.040060997009277,2.56,-4.82,-4.97,7.38
23.042320013046265,4.12,-3.47,-7.62,9.33
23.046027898788452,5.95,-3.16,-7.22,9.87
23.04882502555847,7.18,-2.88,-3.29,8.4
23.051734924316406,6.55,-2.05,0.69,6.89
23.13008189201355,3.46,-1.29,1.5,3.98
23.132970094680786,0.29,-1.13,0.23,1.18
23.135185956954956,-2.24,-1.22,-0.41,2.58
23.142564058303833,-4.73,-0.82,0.89,4.88
23.144870042800903,-7.07,0.56,3.2,7.78
23.148751974105835,-9.33,2.5,4.63,10.71
23.152796030044556,-11.19,4.63,4.4,12.88
23.156858921051025,-12.26,6.78,3.15,14.35
23.159153938293457,-12.37,8.75,2.45,15.34
23.16283679008484,-11.54,10.13,2.41,15.54
23.2408549785614,-10.23,10.46,3.1,14.95
23.24373698234558,-9.09,9.97,3.48,13.93
23.24591612815857,-8.15,9.18,2.63,12.55
23.249665021896362,-7.44,8.58,2.51,11.63
23.25373101234436,-6.74,8.35,2.34,10.98
23.257903814315796,-6.09,8.58,2.21,10.75
23.26028084754944,-5.58,9.23,1.44,10.88
23.26383090019226,-5.05,9.85,0.91,11.1
23.267777919769287,-4.47,10.2,1.08,11.18
23.271955966949463,-3.57,10.4,1.55,11.1
23.348557949066162,-2.12,10.39,1.04,10.65
23.3509738445282,-0.37,10.43,-0.1,10.43
23.35452389717102,1.68,10.45,-1.31,10.66
23.358218908309937,4.29,10.16,-2.03,11.21
23.361140966415405,7.01,9.63,-3.1,12.3
23.365272998809814,9.32,8.65,-4.32,13.42
23.369333028793335,11.11,7.38,-5.09,14.27
23.37339997291565,12.34,6.69,-5.82,15.19
23.375677824020386,12.83,6.95,-5.67,15.65
23.37943196296692,12.5,8.38,-5.6,16.05
23.456878900527954,11.65,10.42,-12.86,20.24
23.459789991378784,15.37,6.09,-20.67,26.46
23.46205496788025,27.21,-28.48,-5.6,39.78
23.465751886367798,19.84,-57.81,16.18,63.22
23.4698429107666,2.05,-22.71,20.64,30.75
23.474607944488525,-8.35,2.56,-4.98,10.05
23.47711491584778,-15.86,10.47,-19.16,26.98
23.480581045150757,-16.73,13.94,-7.39,22.99
23.48350691795349,-9.3,15.28,5.19,18.62
23.487562894821167,-0.39,12.71,10.11,16.24
23.49040389060974,1.88,6.78,6.06,9.28
23.56592297554016,2.53,-5.17,0.21,5.75
23.56883978843689,5.04,-19.29,-3.83,20.3
23.57117009162903,6.32,-13.01,-3.66,14.91
23.574944019317627,6.96,1.51,-3.14,7.78
23.577606916427612,7.22,5.42,-2.95,9.49
23.581640005111694,4.82,4.71,-2.54,7.2
23.585559129714966,2.56,1.81,-1.46,3.45
23.58960509300232,2.0,-1.4,-1.49,2.86
23.593329906463623,1.66,-2.82,-1.66,3.66
23.595482110977173,0.39,-2.21,-1.02,2.46
23.683568000793457,-1.58,-1.39,-0.47,2.15
23.68598484992981,-3.54,-0.76,-0.81,3.71
23.68830180168152,-4.93,0.03,-0.74,4.98
23.69210195541382,-4.62,0.33,0.49,4.65
23.694658994674683,-2.83,-0.03,0.94,2.98
23.69799494743347,-1.03,-0.24,0.57,1.2
23.702090978622437,-0.14,-0.17,-0.04,0.22
23.706123113632202,-0.52,0.23,0.01,0.56
23.709911108016968,-1.44,0.94,0.12,1.72
23.712081909179688,-2.0,1.43,0.61,2.53
23.800328016281128,-1.87,1.38,1.17,2.6
23.802747011184692,-1.21,0.83,1.66,2.21
23.805055856704712,-0.74,0.16,1.72,1.87
23.80879497528076,-1.17,-0.19,1.5,1.91
23.811361074447632,-1.76,-0.28,1.48,2.31
23.8147029876709,-2.1,-0.21,0.91,2.29
23.8187358379364,-1.86,-0.28,0.43,1.92
23.82283592224121,-1.5,-0.68,0.41,1.69
23.826571941375732,-1.42,-1.23,-0.22,1.89
23.828727960586548,-1.04,-1.4,-1.04,2.03
23.915881872177124,-0.58,-1.13,-1.08,1.66
23.918479919433594,-0.5,-1.04,-0.96,1.5
23.92076301574707,-0.27,-1.71,-1.09,2.04
23.92472195625305,0.5,-2.46,-0.94,2.68
23.928380012512207,0.82,-2.59,-0.78,2.82
23.932518005371094,0.94,-2.42,-0.48,2.64
23.936543941497803,1.31,-2.74,-0.24,3.04
23.939652919769287,1.34,-4.46,-0.18,4.66
23.943390130996704,0.43,-6.54,0.62,6.58
23.945568799972534,-0.57,-7.86,1.38,8.0
24.033790826797485,-1.19,-8.43,1.81,8.7
24.036292791366577,-1.51,-9.09,2.39,9.51
24.03865885734558,-1.9,-10.72,3.02,11.29
24.0421359539032,-2.75,-12.04,2.95,12.69
24.044718027114868,-4.39,-9.84,2.34,11.02
24.060322999954224,-6.83,-5.38,1.32,8.79
24.06277298927307,-8.45,-3.55,-0.5,9.17
24.066164016723633,-8.14,-4.9,-1.85,9.67
24.070204973220825,-6.28,-7.9,-1.81,10.25
24.076074838638306,-4.91,-10.85,-1.23,11.97
24.15295386314392,-5.45,-12.03,-1.72,13.31
24.156198978424072,-6.01,-11.99,-1.8,13.53
24.158550024032593,-5.06,-11.72,-1.29,12.83
24.161064863204956,-3.31,-10.62,-1.73,11.25
24.177753925323486,-1.1,-9.05,-1.43,9.22
24.180174112319946,0.78,-7.97,-1.38,8.12
24.184326887130737,2.16,-6.9,-2.97,7.81
24.188513040542603,3.73,-5.73,-5.7,8.9
24.191905975341797,5.57,-4.69,-7.07,10.14
24.19415307044983,7.01,-3.63,-5.18,9.44
24.272661924362183,7.31,-2.73,-2.14,8.09
24.27577495574951,5.61,-2.02,-0.79,6.01
24.278005838394165,2.74,-1.62,-0.95,3.32
24.281862020492554,0.1,-1.43,-0.95,1.71
24.284634828567505,-2.5,-1.26,0.66,2.87
24.288672924041748,-5.17,-0.51,2.84,5.92
24.2920401096344,-7.77,1.15,4.32,8.96
24.29426884651184,-9.87,3.25,4.15,11.18
24.309390783309937,-11.3,5.24,3.01,12.81
24.311681985855103,-11.96,7.11,2.28,14.09
24.390412092208862,-11.95,8.54,2.44,14.88
24.393370866775513,-11.55,9.43,2.95,15.19
24.395633935928345,-10.77,9.73,3.22,14.86
24.399286031723022,-10.04,9.63,2.63,14.15
24.40332293510437,-9.41,9.27,1.93,13.34
24.407320976257324,-8.69,8.9,2.22,12.63
24.40957283973694,-8.31,8.84,2.68,12.42
24.413491010665894,-7.76,8.95,2.36,12.07
24.417490005493164,-7.36,9.4,1.79,12.07
24.42017912864685,-7.0,9.9,1.18,12.18
24.423120975494385,-6.27,10.07,0.74,11.88
24.501544952392578,-5.23,10.11,0.58,11.39
24.504087924957275,-3.9,10.1,0.36,10.83
24.508219003677368,-2.57,9.94,0.02,10.26
24.51151204109192,-1.49,9.75,-0.12,9.86
24.515695810317993,-0.31,9.32,0.11,9.32
24.518648862838745,0.98,8.53,0.77,8.62
24.521440982818604,2.21,7.51,1.54,7.97
24.52443289756775,3.4,6.4,1.75,7.45
24.52685284614563,4.83,5.07,0.84,7.05
24.530800104141235,6.22,3.05,-0.3,6.93
24.6098690032959,7.45,0.82,-0.63,7.52
24.612836122512817,8.07,-0.22,0.03,8.07
24.615054845809937,8.13,-0.04,0.54,8.14
24.618794918060303,8.09,0.77,0.66,8.15
24.62272810935974,8.35,1.94,0.14,8.57
24.62571692466736,8.87,3.29,-1.35,9.55
24.628451108932495,9.33,3.66,-4.71,11.07
24.645556926727295,10.14,-8.84,-13.19,18.83
24.647989988327026,8.93,-45.19,-22.26,51.16
24.65204691886902,8.86,-36.99,-2.76,38.13
24.729660987854004,13.13,-4.88,23.1,27.01
24.732603788375854,7.23,6.62,10.2,14.14
24.73484492301941,-1.52,11.29,-7.1,13.42
24.738531827926636,-8.6,15.22,-12.89,21.72
24.742218017578125,-10.11,17.66,-12.55,23.9
24.744963884353638,-6.0,12.99,-3.47,14.72
24.749104976654053,-1.82,2.42,7.99,8.54
24.75316095352173,1.08,-15.89,8.39,18.0
24.75714612007141,2.02,-24.74,5.09,25.33
24.7594211101532,2.27,-7.15,2.05,7.77
24.83841300010681,3.11,4.98,-3.57,6.87
24.841825008392334,4.22,6.87,-5.39,9.69
24.84446692466736,4.31,5.88,-1.98,7.55
24.84863781929016,3.94,3.21,0.88,5.15
24.85267186164856,4.82,-1.09,-0.78,5.0
24.85681986808777,5.74,-3.73,-2.71,7.36
24.86058211326599,5.58,-2.66,-1.51,6.36
24.862812995910645,3.86,0.04,0.11,3.86
24.876105070114136,1.3,1.6,0.27,2.07
24.878390073776245,-0.44,1.63,-0.07,1.68
24.95768690109253,-1.2,0.78,0.05,1.43
24.960529088974,-1.2,-0.56,0.49,1.41
24.962671995162964,-0.71,-1.86,0.32,2.01
24.966514825820923,-0.51,-2.12,-0.28,2.19
24.970521926879883,-0.43,-0.98,-0.62,1.23
24.974537134170532,-0.26,0.3,-0.81,0.9
24.976792097091675,-0.21,1.04,-0.77,1.31
24.980463981628418,-0.48,1.02,-0.68,1.31
24.98314595222473,-0.76,0.53,-0.72,1.17
24.987202882766724,-1.05,0.3,-0.38,1.15
25.066509008407593,-1.37,0.52,0.1,1.46
25.06909489631653,-1.63,0.76,0.71,1.93
25.072709798812866,-1.8,0.61,0.97,2.13
25.075773000717163,-1.98,0.32,1.02,2.25
25.078319787979126,-2.15,0.07,1.01,2.37
25.09481978416443,-2.1,-0.06,1.14,2.39
25.097182989120483,-1.76,0.05,1.11,2.08
25.100978136062622,-1.56,0.19,1.0,1.86
25.105047941207886,-1.47,0.34,0.47,1.58
25.107980012893677,-1.4,0.35,0.21,1.45
25.184184789657593,-1.28,0.29,0.52,1.41
25.187119007110596,-1.25,0.05,0.6,1.38
25.189453840255737,-1.36,-0.17,-0.13,1.37
25.19279980659485,-1.32,-0.27,-0.36,1.39
25.195321798324585,-1.09,-0.46,0.12,1.18
25.211699962615967,-0.98,-0.86,0.38,1.35
25.214019060134888,-0.98,-1.24,0.14,1.58
25.216835975646973,-0.99,-1.32,0.0,1.65
25.21980094909668,-0.62,-1.18,0.37,1.38
25.2239089012146,-0.1,-1.01,0.48,1.12
25.300241947174072,0.37,-0.9,0.4,1.05
25.30279803276062,0.57,-0.8,-0.2,1.0
25.30641484260559,0.28,-0.74,-0.85,1.16
25.309491872787476,0.04,-1.18,-0.59,1.31
25.311790943145752,-0.06,-1.65,-0.75,1.81
25.327586889266968,-0.19,-1.9,-0.96,2.13
25.330074071884155,-0.13,-2.4,-0.3,2.42
25.33338499069214,-0.06,-3.0,0.7,3.08
25.33743691444397,-0.29,-3.29,1.32,3.55
25.34139084815979,-0.9,-3.42,1.89,4.0
25.34363579750061,-1.55,-3.82,2.01,4.58
25.422231912612915,-2.37,-4.42,2.26,5.5
25.425440073013306,-3.29,-5.66,2.05,6.86
25.427849054336548,-4.21,-8.15,1.14,9.24
25.431535959243774,-5.42,-11.49,1.0,12.74
25.435593843460083,-7.32,-14.35,1.68,16.19
25.439800024032593,-8.82,-15.07,2.46,17.63
25.442728996276855,-8.71,-13.76,3.34,16.62
25.444934129714966,-8.17,-11.06,4.25,14.39
25.46021008491516,-7.84,-7.77,3.24,11.5
25.462519884109497,-6.67,-5.19,1.32,8.55
25.540328979492188,-5.28,-3.62,0.63,6.43
25.543287992477417,-4.39,-3.08,1.01,5.45
25.545506954193115,-3.61,-3.03,1.78,5.03
25.54926896095276,-2.88,-2.64,2.34,4.55
25.553323984146118,-2.38,-1.4,1.66,3.22
25.557411909103394,-2.34,0.46,0.74,2.49
25.561048984527588,-2.43,2.25,-0.22,3.31
25.56314778327942,-2.43,3.33,-0.15,4.12
25.578102827072144,-1.82,4.15,-0.19,4.53
25.580602884292603,-0.95,5.25,-0.61,5.37
25.65871500968933,-0.48,6.05,-0.97,6.14
25.661683797836304,-0.77,6.27,-0.54,6.34
25.663953065872192,-1.53,6.18,0.61,6.39
25.66769003868103,-2.33,5.86,2.09,6.64
25.671683073043823,-2.88,5.37,3.48,7.01
25.675660848617554,-2.96,4.79,3.74,6.75
25.678086042404175,-2.74,4.22,2.77,5.74
25.68162703514099,-2.69,3.8,1.77,4.98
25.685691118240356,-2.96,3.62,1.42,4.88
25.68982195854187,-3.37,3.72,1.73,5.3
25.767056941986084,-3.8,4.17,2.37,6.11
25.76945996284485,-4.18,4.61,2.94,6.88
25.77303385734558,-4.39,4.59,3.23,7.12
25.77615189552307,-4.08,3.97,3.11,6.48
25.77869486808777,-3.41,3.12,2.73,5.36
25.795039892196655,-2.73,2.03,2.36,4.14
25.797434091567993,-1.96,0.63,2.45,3.2
25.80048680305481,-0.85,-0.74,3.09,3.28
25.80436110496521,0.63,-1.85,3.43,3.94
25.80901312828064,2.34,-2.45,3.03,4.54
25.885074853897095,3.93,-2.86,1.91,5.22
25.887876987457275,5.1,-3.47,0.48,6.18
25.890214920043945,6.31,-4.45,-0.77,7.75
25.89251208305359,7.06,-5.41,-1.78,9.07
25.896687984466553,6.95,-5.95,-2.34,9.44
25.900721788406372,6.68,-5.97,-2.57,9.32
25.90474009513855,6.09,-4.66,-2.05,7.93
25.907604932785034,5.32,-3.08,-0.68,6.18
25.9098539352417,4.94,-3.02,1.12,5.89
25.912800073623657,5.07,-3.93,3.36,7.24
25.989845037460327,5.51,-4.14,5.42,8.76
25.992937803268433,5.62,-3.48,5.92,8.87
25.995320081710815,5.72,-2.82,4.9,8.04
25.99879002571106,6.49,-2.58,3.51,7.81
26.00285792350769,7.76,-2.18,2.74,8.51
26.006999969482422,8.87,-1.3,0.84,9.0
26.010633945465088,5.59,-0.32,-3.55,6.62
26.012841939926147,-6.59,-1.48,-2.38,7.16
26.02781391143799,-12.3,-8.56,4.51,15.64
26.030120134353638,-1.43,-14.6,8.27,16.84
26.10799288749695,7.6,-9.51,3.24,12.59
26.110938787460327,6.43,-2.03,-1.8,6.97
26.11315608024597,4.87,0.8,-2.47,5.51
26.11678385734558,7.26,2.4,-1.29,7.75
26.12084984779358,9.27,3.97,2.52,10.39
26.124840021133423,6.5,5.15,4.24,9.31
26.12708592414856,1.42,3.86,-0.84,4.19
26.13091492652893,-1.6,0.6,-9.26,9.41
26.13479781150818,-1.83,-1.41,-12.02,12.23
26.138866901397705,0.57,-0.83,-5.78,5.86
26.215276956558228,3.15,0.85,1.85,3.75
26.217689990997314,3.74,1.51,4.28,5.88
26.221329927444458,3.32,0.62,1.97,3.9
26.225938081741333,2.56,-0.83,0.98,2.86
26.228477001190186,1.28,-1.53,1.78,2.67
26.231729984283447,-0.46,-1.48,1.36,2.06
26.235795974731445,-1.64,-0.8,-0.71,1.95
26.239989042282104,-1.66,0.09,-2.26,2.8
26.243083953857422,-0.88,0.46,-2.04,2.26
26.24530601501465,0.16,0.17,-1.03,1.05
26.260466814041138,0.85,-0.09,-0.73,1.12
26.33517289161682,0.93,0.0,-0.96,1.33
26.338117837905884,0.59,0.16,-0.97,1.14
26.340415000915527,-0.01,0.3,-0.56,0.63
26.342700958251953,-0.45,0.13,-0.23,0.52
26.346741914749146,-0.97,-0.04,-0.07,0.97
26.350796937942505,-1.63,-0.23,-0.08,1.64
26.354832887649536,-2.25,-0.42,-0.52,2.34
26.35941481590271,-2.53,-0.45,-0.8,2.69
26.36191701889038,-2.29,-0.4,-0.52,2.38
26.365322828292847,-1.84,-0.26,0.24,1.87
26.441831827163696,-1.41,-0.16,1.07,1.77
26.44487500190735,-1.14,-0.25,1.02,1.55
26.447131872177124,-1.15,-0.23,0.98,1.52
26.450793981552124,-1.17,-0.07,1.02,1.55
26.453718900680542,-1.04,0.04,1.12,1.52
26.45667791366577,-0.89,0.13,0.85,1.23
26.4599130153656,-0.71,0.14,0.2,0.75
26.46280598640442,-0.35,-0.03,-0.2,0.4
26.479480981826782,0.14,-0.23,0.05,0.27
26.481966972351074,0.8,-0.3,-0.41,0.94
26.558191061019897,1.24,-0.08,-1.42,1.88
26.56116509437561,1.45,-0.15,-0.85,1.68
26.563386917114258,1.72,-0.37,0.78,1.92
26.567106008529663,1.44,-0.29,1.52,2.11
26.571112871170044,0.78,-0.39,0.95,1.28
26.574113130569458,0.04,-0.8,0.92,1.21
26.57703399658203,-0.49,-1.2,0.83,1.53
26.579376935958862,-0.81,-1.64,0.58,1.91
26.59482192993164,-1.1,-1.96,0.59,2.32
26.597235918045044,-1.42,-2.07,0.56,2.57
26.673661947250366,-1.72,-2.42,0.29,2.98
26.67671513557434,-1.83,-3.51,-0.12,3.96
26.67894196510315,-1.79,-5.5,-0.14,5.78
26.682629823684692,-2.01,-8.03,0.09,8.27
26.686677932739258,-2.66,-10.89,0.35,11.21
26.690786123275757,-3.8,-13.02,0.93,13.59
26.694571018218994,-4.68,-13.09,1.21,13.95
26.696839094161987,-4.73,-11.46,1.71,12.51
26.71110200881958,-4.66,-8.79,2.17,10.18
26.713414907455444,-4.95,-5.97,1.83,7.96
26.78955388069153,-4.73,-4.03,1.42,6.37
26.79274582862854,-4.12,-3.03,1.3,5.27
26.795248985290527,-3.81,-3.21,1.16,5.11
26.799455881118774,-3.37,-3.76,1.55,5.28
26.803509950637817,-2.71,-3.65,1.95,4.94
26.807586908340454,-2.14,-2.6,1.73,3.78
26.811450958251953,-1.78,-0.91,1.08,2.27
26.81366491317749,-1.52,0.33,0.45,1.61
26.827327966690063,-1.49,1.01,0.22,1.81
26.82970690727234,-1.82,2.04,0.46,2.77
26.90758490562439,-2.69,2.74,1.71,4.2
26.910345792770386,-4.13,2.95,3.7,6.28
26.912580013275146,-5.23,3.06,5.41,8.12
26.9163978099823,-5.73,3.36,5.48,8.61
26.920430898666382,-5.67,3.73,4.39,8.08
26.92445683479309,-4.96,3.94,3.04,7.02
26.928107976913452,-4.21,3.84,2.38,6.17
26.930310010910034,-3.96,3.6,2.46,5.89
26.94507384300232,-4.12,3.35,3.0,6.09
26.947449922561646,-4.32,3.19,3.2,6.25
27.023448944091797,-4.43,3.33,3.18,6.38
27.02761197090149,-4.39,3.56,3.16,6.47
27.030476808547974,-4.07,3.4,3.14,6.16
27.034571886062622,-3.36,2.74,3.21,5.39
27.03873085975647,-2.35,1.9,3.28,4.45
27.041567087173462,-1.57,1.35,3.13,3.75
27.043866872787476,-1.22,1.26,2.94,3.42
27.047953844070435,-0.9,1.32,2.62,3.06
27.050906896591187,-0.38,1.16,2.21,2.52
27.05493998527527,0.3,0.73,1.89,2.04
27.130840063095093,1.09,0.21,1.47,1.84
27.133387804031372,1.92,-0.32,1.04,2.2
27.137006998062134,2.68,-0.99,0.51,2.9
27.141076803207397,3.59,-1.89,-0.09,4.05
27.144690990447998,4.66,-2.77,-0.85,5.48
27.146951913833618,5.88,-3.37,-1.76,7.0
27.161940813064575,7.01,-3.36,-2.68,8.22
27.164330005645752,7.85,-3.29,-3.5,9.2
27.167908906936646,8.14,-3.2,-3.4,9.38
27.171633005142212,7.52,-2.75,-2.01,8.25
27.175649881362915,6.29,-2.7,0.31,6.85
27.24990701675415,5.14,-3.1,3.05,6.73
27.252854108810425,4.31,-3.49,4.77,7.31
27.255122900009155,3.45,-3.53,5.1,7.09
27.258745908737183,3.14,-3.08,4.44,6.24
27.261091947555542,3.64,-2.5,4.14,6.05
27.26481795310974,5.42,-2.02,4.11,7.09
27.2688889503479,7.66,-1.67,3.08,8.42
27.272969961166382,8.07,-1.35,-0.7,8.21
27.27663493156433,0.51,-2.23,-3.58,4.24
27.2790789604187,-12.76,-8.01,-1.1,15.1
27.354967832565308,-12.09,-16.54,6.39,21.46
27.357975006103516,1.81,-14.19,10.11,17.51
27.360269784927368,7.2,-3.62,4.0,8.99
27.362841844558716,7.11,2.79,-0.71,7.67
27.378703832626343,8.55,5.0,-2.82,10.29
27.38126492500305,9.92,5.06,-2.62,11.44
27.38529086112976,7.14,4.92,-1.03,8.73
27.389373064041138,2.57,3.31,-2.41,4.83
27.3934109210968,-0.05,0.15,-6.41,6.41
27.395686864852905,-0.32,-1.99,-8.97,9.19
27.47245693206787,1.06,-1.07,-6.8,6.96
27.475425958633423,3.03,1.28,-2.65,4.22
27.47775912284851,4.31,2.07,-0.18,4.78
27.481679916381836,3.91,1.0,1.37,4.26
27.4856379032135,2.21,-0.58,2.91,3.69
27.489718914031982,-0.44,-1.4,3.76,4.03
27.493327856063843,-3.23,-1.47,3.05,4.67
27.49574899673462,-5.01,-1.19,0.92,5.23
27.49928593635559,-5.08,-0.42,-1.6,5.34
27.502198934555054,-3.05,0.49,-2.1,3.73
27.57850480079651,-0.02,0.84,-1.4,1.63
27.58139991760254,2.47,0.8,-1.11,2.82
27.583632946014404,3.99,0.79,-1.47,4.32
27.587362051010132,4.45,0.83,-1.71,4.83
27.590333938598633,3.92,0.71,-1.04,4.11
27.59359908103943,2.86,0.2,-0.38,2.89
27.59616780281067,1.44,-0.18,-0.2,1.46
27.612542867660522,0.13,-0.24,-0.19,0.33
27.61495804786682,-0.73,-0.22,-0.03,0.76
27.618436098098755,-1.41,-0.19,0.2,1.43
27.694420099258423,-1.77,-0.19,0.39,1.82
27.697284936904907,-1.61,-0.17,0.35,1.65
27.69951605796814,-1.2,-0.07,0.13,1.2
27.70333981513977,-0.59,-0.04,0.23,0.63
27.707199811935425,-0.08,-0.03,0.38,0.38
27.710351943969727,0.13,0.01,0.45,0.46
27.712901830673218,0.03,0.05,0.31,0.31
27.72911810874939,-0.3,0.04,0.21,0.36
27.731520891189575,-0.83,0.02,0.16,0.84
27.73501992225647,-1.26,0.06,0.35,1.3
27.8103289604187,-1.4,0.07,0.53,1.49
27.81336808204651,-1.37,-0.02,0.66,1.52
27.815574884414673,-1.29,-0.14,0.57,1.41
27.81929612159729,-1.22,-0.25,0.65,1.4
27.823534965515137,-1.0,-0.22,0.99,1.42
27.826977014541626,-0.88,-0.14,1.08,1.4
27.829566955566406,-0.85,-0.1,0.76,1.14
27.845476865768433,-0.61,-0.26,0.57,0.87
27.847896814346313,-0.43,-0.62,0.3,0.81
27.851481914520264,-0.54,-0.88,-0.16,1.04
27.92682909965515,-0.85,-1.0,-0.11,1.31
27.92969012260437,-1.41,-0.84,-0.22,1.65
27.931927919387817,-1.23,-0.92,-0.54,1.62
27.935653924942017,-0.4,-1.3,-0.81,1.58
27.939734935760498,0.52,-1.58,-1.27,2.09
27.943384885787964,1.63,-2.18,-1.42,3.07
27.945861101150513,2.86,-3.23,-1.32,4.51
27.9494149684906,3.52,-4.08,-1.0,5.48
27.95334792137146,3.31,-5.02,0.38,6.02
27.95743489265442,2.84,-5.65,1.25,6.44
28.032238960266113,1.58,-5.94,2.22,6.53
28.034642934799194,0.31,-6.84,1.78,7.07
28.037266969680786,-0.61,-8.46,0.95,8.53
28.041206121444702,-1.22,-9.8,0.43,9.88
28.04416298866272,-1.77,-9.73,0.59,9.9
28.04654097557068,-2.61,-8.96,0.88,9.37
28.062968015670776,-3.79,-8.21,1.34,9.14
28.065354108810425,-5.36,-6.37,1.74,8.5
28.069245100021362,-6.65,-4.26,1.72,8.08
28.073143005371094,-6.5,-4.57,0.86,7.99
28.07701086997986,-4.74,-7.29,0.0,8.69
28.150856971740723,-4.29,-9.26,-0.37,10.21
28.153807878494263,-6.01,-8.85,-0.12,10.69
28.156116008758545,-7.32,-7.86,0.21,10.74
28.160345792770386,-6.16,-8.7,0.36,10.66
28.16319990158081,-4.28,-9.78,-0.18,10.67
28.166326999664307,-2.09,-8.95,-0.22,9.19
28.170367002487183,0.36,-7.24,-0.07,7.24
28.173420906066895,1.95,-5.92,-1.23,6.35
28.177037954330444,3.5,-5.3,-4.18,7.6
28.179537057876587,5.71,-5.31,-5.65,9.62
28.254220008850098,8.13,-5.37,-3.72,10.42
28.257177114486694,9.8,-4.76,0.51,10.9
28.259405851364136,9.3,-3.36,2.76,10.26
28.261801958084106,6.66,-1.93,1.83,7.17
28.27985978126526,3.34,-1.06,0.06,3.5
28.282318830490112,0.11,-0.47,0.02,0.48
28.286283016204834,-2.86,0.12,1.94,3.45
28.290318965911865,-5.42,0.71,4.22,6.9
28.293729066848755,-7.6,1.69,5.93,9.78
28.295997858047485,-9.12,3.09,6.91,11.85
28.37084984779358,-10.08,4.77,7.14,13.24
28.373823881149292,-10.43,6.52,5.96,13.66
28.376077890396118,-10.0,8.0,4.39,13.53
28.378437995910645,-9.33,8.77,3.7,13.32
28.3957040309906,-8.25,8.69,3.6,12.51
28.39815402030945,-7.06,8.3,3.27,11.37
28.401554822921753,-5.79,7.85,2.49,10.06
28.404484033584595,-4.66,7.71,1.99,9.22
28.40862011909485,-3.85,8.04,1.74,9.08
28.412169933319092,-3.32,8.52,1.38,9.24
28.48575496673584,-3.01,8.83,0.94,9.37
28.48873782157898,-2.81,8.87,0.62,9.32
28.491034984588623,-2.48,8.77,0.67,9.13
28.493324041366577,-1.97,8.73,0.86,8.99
28.496521949768066,-1.51,9.0,1.08,9.18
28.500470876693726,-1.14,9.47,1.56,9.66
28.504512071609497,-0.75,9.78,2.28,10.07
28.508506059646606,-0.28,9.85,2.86,10.26
28.51218295097351,0.52,9.76,2.65,10.12
28.514338970184326,1.76,9.39,1.69,9.7
28.59940791130066,3.71,8.5,-0.07,9.27
28.60201597213745,5.92,7.08,-2.1,9.46
28.60423994064331,8.21,5.26,-3.2,10.26
28.60804295539856,10.48,3.89,-3.49,11.71
28.610939979553223,12.08,4.09,-3.29,13.17
28.61334490776062,12.57,6.03,-2.71,14.2
28.629321813583374,11.63,8.54,-2.67,14.67
28.631738901138306,9.42,6.81,-6.61,13.37
28.63506293296814,11.14,-18.69,-22.41,31.23
28.639102935791016,14.24,-53.3,-26.99,61.41
28.711339950561523,7.66,-18.02,20.47,28.32
28.71420693397522,-2.13,5.69,24.61,25.34
28.71647596359253,-4.18,9.13,-4.17,10.87
28.720144987106323,-5.48,12.0,-11.4,17.43
28.724159955978394,-2.64,12.61,-1.27,12.94
28.72753095626831,4.15,9.17,7.03,12.27
28.730028867721558,5.96,0.36,3.98,7.17
28.746417999267578,2.95,-10.09,-2.79,10.87
28.748795986175537,-0.39,-12.05,-4.07,12.72
28.75215792655945,-0.17,-2.73,-2.09,3.44
28.82415199279785,3.29,2.98,-2.36,5.02
28.827268838882446,6.93,3.09,-3.81,8.49
28.82996106147766,6.84,2.65,-1.64,7.51
28.833225965499878,4.69,1.75,0.36,5.01
28.837272882461548,3.31,0.09,-1.11,3.49
28.84136700630188,2.29,-0.79,-2.26,3.31
28.844398975372314,1.13,-0.37,-1.11,1.62
28.846635103225708,0.25,-0.07,-0.38,0.46
28.86122488975525,-0.21,0.01,-0.78,0.8
28.86349391937256,-0.41,0.15,-0.72,0.84
28.934622049331665,-0.25,-0.01,0.09,0.26
28.937609910964966,0.16,-0.54,0.13,0.57
28.939835786819458,-0.11,-0.81,-0.81,1.15
28.943875074386597,-0.71,-0.38,-1.8,1.97
28.946576833724976,-1.02,0.26,-2.29,2.52
28.95071792602539,-0.99,0.56,-2.12,2.4
28.95477795600891,-1.01,0.72,-1.45,1.9
28.958746910095215,-1.36,0.93,-0.65,1.77
28.96278405189514,-2.05,0.92,0.01,2.24
28.9650559425354,-2.69,0.87,0.62,2.89
28.978226900100708,-2.89,1.09,1.17,3.3
29.047919034957886,-2.4,1.0,1.66,3.08
29.05087399482727,-1.56,0.3,2.08,2.61
29.053162813186646,-1.27,-0.49,2.14,2.53
29.056895971298218,-1.59,-1.01,1.68,2.52
29.059728860855103,-2.3,-0.87,1.19,2.73
29.06199288368225,-2.69,-0.56,0.85,2.87
29.065787076950073,-2.82,-0.72,0.56,2.96
29.069831132888794,-2.88,-1.0,-0.13,3.05
29.073915004730225,-2.25,-0.72,-0.95,2.54
29.077544927597046,-0.71,-0.53,-0.91,1.27
29.147159814834595,0.72,-1.06,0.09,1.28
29.150081872940063,0.97,-1.6,0.01,1.87
29.152354955673218,0.52,-1.86,-1.39,2.37
29.15609908103943,0.04,-2.37,-1.51,2.81
29.16056799888611,-0.31,-2.74,-0.19,2.76
29.16304612159729,-0.53,-2.55,0.22,2.61
29.166424989700317,-0.53,-2.39,-0.79,2.57
29.169116973876953,0.29,-2.81,-1.08,3.02
29.17207980155945,1.44,-4.58,0.32,4.81
29.175111055374146,1.9,-7.39,0.81,7.67
29.24680995941162,1.65,-9.09,0.67,9.26
29.249231100082397,1.33,-9.05,1.43,9.25
29.252849817276,0.79,-9.3,1.92,9.52
29.256913900375366,0.05,-10.69,2.23,10.92
29.2597439289093,-1.71,-9.12,2.15,9.52
29.262059926986694,-4.24,-4.23,1.04,6.07
29.26580500602722,-6.38,-2.0,-0.46,6.7
29.26975989341736,-7.45,-3.31,-1.29,8.25
29.273825883865356,-7.13,-5.93,-1.39,9.37
29.277415990829468,-7.18,-8.61,-0.99,11.25
29.34714698791504,-8.36,-11.22,-0.38,13.99
29.350083112716675,-9.17,-13.17,-0.6,16.05
29.352407932281494,-7.09,-13.62,-0.89,15.38
29.356096982955933,-3.23,-11.69,-1.74,12.25
29.36067295074463,-1.37,-9.08,-3.25,9.74
29.363176107406616,0.27,-7.55,-3.47,8.31
29.366606950759888,1.52,-6.4,-4.54,7.99
29.37060284614563,2.96,-5.03,-5.48,8.0
29.374778985977173,4.71,-4.25,-5.74,8.55
29.377885103225708,6.02,-3.86,-5.4,8.96
29.447207927703857,6.15,-3.34,-4.04,8.08
29.450186014175415,4.75,-3.09,-2.62,6.24
29.45252799987793,2.2,-3.08,-1.49,4.06
29.456231832504272,-0.68,-2.53,-0.05,2.62
29.46070885658264,-3.53,-1.61,1.0,4.0
29.463268041610718,-6.45,-0.4,2.05,6.77
29.467378854751587,-9.05,1.41,3.02,9.64
29.471440076828003,-10.75,3.84,3.21,11.85
29.47547698020935,-11.67,6.32,2.89,13.58
29.47924304008484,-11.79,8.25,2.36,14.58
29.549015998840332,-11.48,9.49,2.34,15.07
29.55201506614685,-10.95,9.91,2.53,14.98
29.554301977157593,-10.41,9.68,2.35,14.4
29.558037042617798,-9.75,9.16,2.19,13.55
29.561190843582153,-8.72,8.64,1.79,12.4
29.563808917999268,-7.56,8.13,2.26,11.32
29.58011507987976,-6.65,7.91,2.09,10.54
29.582502126693726,-5.95,8.12,1.62,10.19
29.585978984832764,-5.57,8.66,0.91,10.33
29.590269804000854,-5.23,9.11,0.69,10.52
29.662193059921265,-4.54,9.53,0.65,10.57
29.66468095779419,-3.59,9.94,0.69,10.59
29.667197942733765,-2.06,10.19,0.84,10.43
29.67123579978943,-0.11,10.35,0.34,10.35
29.675323963165283,1.78,10.29,-0.38,10.44
29.678934812545776,3.68,10.05,-0.31,10.7
29.68116593360901,5.71,9.62,-0.39,11.19
29.713825941085815,7.49,8.71,-1.05,11.53
29.716543912887573,8.56,7.11,-1.9,11.28
29.719792127609253,8.73,5.68,-2.53,10.71
29.792266130447388,8.59,5.45,-2.95,10.59
29.79540991783142,8.94,6.84,-3.44,11.77
29.797626972198486,9.71,8.89,-3.87,13.72
29.801482915878296,9.75,10.82,-8.95,17.09
29.80556893348694,10.37,10.44,-23.42,27.65
29.80955481529236,22.31,-18.49,-20.39,35.43
29.811831951141357,26.92,-66.87,4.8,72.24
29.815951108932495,8.82,-31.62,31.43,45.44
29.819862127304077,-1.75,1.52,3.41,4.12
29.82387089729309,-8.16,9.94,-21.57,25.11
29.828028917312622,-11.16,14.36,-7.63,19.72
29.89748501777649,-10.43,15.85,8.24,20.68
29.90041995048523,-7.79,13.51,8.07,17.55
29.902719974517822,-6.32,7.46,1.81,9.94
29.90648579597473,-2.55,-2.69,-1.16,3.88
29.910919904708862,4.44,-17.11,-1.8,17.76
29.913370847702026,10.27,-15.13,-1.54,18.35
29.916826963424683,11.98,-1.03,-2.48,12.27
29.92086911201477,11.09,5.26,-4.14,12.95
29.924967050552368,7.78,6.15,-2.72,10.28
29.928112983703613,4.85,3.62,-0.76,6.09
29.99785304069519,3.06,-0.02,-1.49,3.4
30.000762939453125,1.69,-2.51,-1.89,3.56
30.00308108329773,-0.38,-3.0,-0.81,3.13
30.006791830062866,-2.88,-2.18,-0.09,3.61
30.009741067886353,-4.39,-0.58,-0.19,4.43
30.01202893257141,-4.74,0.54,-0.07,4.77
30.015976905822754,-3.81,0.57,0.51,3.88
30.02002191543579,-2.27,-0.09,-0.12,2.27
30.02404499053955,-1.29,-0.44,-1.06,1.72
30.02816081047058,-0.77,-0.14,-1.35,1.56
30.097514867782593,-0.8,0.78,-0.74,1.34
30.100423097610474,-1.1,1.57,0.22,1.92
30.10270595550537,-1.01,1.87,0.37,2.15
30.106441974639893,-0.68,1.69,0.34,1.85
30.111007928848267,-0.39,1.06,0.46,1.21
30.11336398124695,-0.48,0.21,0.81,0.96
30.117003917694092,-1.18,-0.15,1.2,1.68
30.121027946472168,-2.13,0.25,1.25,2.48
30.125126123428345,-2.46,0.77,1.1,2.8
30.128145933151245,-2.07,0.81,1.19,2.52
30.19718599319458,-1.75,0.02,1.1,2.06
30.200103044509888,-1.79,-0.87,0.09,1.99
30.202401876449585,-1.9,-1.32,-1.06,2.54
30.20617985725403,-1.84,-1.28,-1.04,2.47
30.2100670337677,-1.07,-1.06,0.23,1.52
30.21232795715332,0.19,-0.94,0.64,1.15
30.21621584892273,1.25,-1.18,0.15,1.72
30.220163106918335,1.65,-1.92,-0.4,2.56
30.224241018295288,1.5,-2.68,-0.86,3.18
30.22780990600586,1.18,-3.03,-0.68,3.32
30.297606945037842,0.58,-3.1,-0.35,3.17
30.30053687095642,0.5,-3.7,-0.73,3.8
30.302833795547485,0.49,-4.65,-0.35,4.68
30.306342840194702,0.14,-5.38,0.05,5.38
30.310285806655884,0.16,-6.05,0.06,6.05
30.31254291534424,0.46,-7.02,0.86,7.08
30.316406965255737,0.96,-7.86,2.08,8.18
30.319167852401733,0.51,-7.97,2.93,8.5
30.323117971420288,-1.27,-8.66,2.31,9.05
30.327840089797974,-4.28,-8.44,1.68,9.61
30.39890694618225,-7.36,-5.91,0.74,9.46
30.401915788650513,-8.7,-4.24,-0.45,9.68
30.404284954071045,-8.34,-4.48,-1.09,9.52
30.40798306465149,-7.09,-5.85,-0.69,9.21
30.411595106124878,-6.7,-8.11,0.01,10.51
30.41430401802063,-7.56,-11.12,0.03,13.44
30.417387008666992,-7.88,-13.17,0.19,15.34
30.42146897315979,-5.98,-12.88,-0.31,14.2
30.425575971603394,-3.23,-11.1,-1.58,11.66
30.4285991191864,-1.98,-9.33,-3.17,10.05
30.4999577999115,-0.71,-7.75,-3.54,8.54
30.502965927124023,0.7,-6.73,-4.06,7.89
30.505348920822144,1.8,-5.78,-5.29,8.03
30.508958101272583,3.55,-4.84,-6.25,8.66
30.511916875839233,5.49,-4.18,-6.02,9.15
30.514518976211548,6.71,-3.5,-4.23,8.66
30.530956983566284,6.1,-3.04,-1.94,7.08
30.533336877822876,3.37,-2.62,-0.77,4.33
30.536839962005615,0.24,-2.09,-0.19,2.11
30.54086184501648,-2.43,-0.94,0.67,2.69
30.611824989318848,-4.68,0.36,1.52,4.93
30.614470958709717,-7.01,1.57,2.64,7.65
30.61807084083557,-9.34,3.03,4.01,10.6
30.622217893600464,-11.3,4.86,4.33,13.04
30.62631583213806,-12.6,6.91,3.48,14.78
30.62995195388794,-13.0,8.97,2.56,16.0
30.632243871688843,-12.42,10.34,1.91,16.27
30.646708011627197,-11.16,10.74,2.08,15.62
30.649159908294678,-9.72,10.32,2.64,14.42
30.652626991271973,-8.3,9.47,2.39,12.81
30.65563988685608,-6.84,8.54,1.93,11.11
30.725899934768677,-5.44,8.03,2.11,9.92
30.728765964508057,-4.64,8.25,2.33,9.74
30.73101305961609,-4.11,8.58,1.63,9.65
30.748744010925293,-4.21,9.18,0.88,10.13
30.75119709968567,-4.4,9.72,0.65,10.68
30.75496792793274,-3.77,10.13,1.07,10.86
30.759150981903076,-2.53,10.36,1.36,10.75
30.76214289665222,-0.89,10.29,1.4,10.42
30.764405965805054,0.9,9.98,1.16,10.08
30.780269861221313,2.64,9.75,0.63,10.12
30.850157022476196,4.42,9.42,0.19,10.4
30.853137969970703,6.29,8.92,-0.71,10.93
30.855443954467773,7.68,8.14,-1.77,11.33
30.859179973602295,8.49,7.23,-2.06,11.34
30.862842798233032,8.79,6.76,-2.31,11.32
30.865097999572754,9.11,7.32,-2.65,11.98
30.880697011947632,9.57,8.84,-2.68,13.3
30.883183002471924,9.85,10.66,-6.44,15.87
30.88732886314392,11.62,9.86,-20.11,25.23
30.89144992828369,25.85,-20.42,-24.07,40.79
30.963020086288452,28.46,-66.77,3.2,72.65
30.965562105178833,4.38,-25.26,33.69,42.33
30.967889070510864,-5.24,3.29,1.22,6.3
30.971580982208252,-11.02,9.36,-24.97,28.85
30.975382089614868,-12.74,13.07,-7.25,19.63
30.978619813919067,-6.99,14.9,8.57,18.55
30.98119282722473,-0.75,13.04,9.74,16.29
30.99656891822815,-1.82,6.65,3.06,7.54
30.998969793319702,-3.59,-3.41,-1.58,5.19
31.00243306159973,-0.56,-14.96,-2.78,15.22
31.07526707649231,4.84,-11.45,-1.41,12.51
31.07838201522827,10.41,-1.08,-2.25,10.7
31.081142902374268,12.87,2.46,-3.83,13.65
31.08521008491516,8.95,3.7,-2.47,9.99
31.089253902435303,4.17,2.97,-0.65,5.16
31.093446016311646,1.84,0.97,-1.72,2.69
31.095762968063354,0.5,-0.68,-2.57,2.7
31.09980297088623,-0.58,-1.22,-1.51,2.02
31.10357689857483,-1.07,-1.1,-0.76,1.71
31.10763192176819,-1.39,-0.64,-0.8,1.72
31.17919898033142,-1.7,-0.51,-0.1,1.77
31.18165898323059,-2.21,-0.7,0.24,2.33
31.185277938842773,-2.19,-0.65,-0.93,2.46
31.189418077468872,-1.13,-0.55,-1.48,1.94
31.193424940109253,0.18,-0.24,-0.96,1.0
31.195666074752808,0.63,0.31,-0.76,1.03
31.199829816818237,0.34,0.76,-0.48,0.96
31.202841997146606,-0.45,1.0,-0.05,1.09
31.20686984062195,-1.49,0.81,0.36,1.73
31.21077299118042,-1.94,0.63,0.95,2.25
31.279891967773438,-1.96,0.71,1.77,2.73
31.28284478187561,-1.67,0.59,2.45,3.02
31.285161018371582,-1.64,-0.05,2.31,2.83
31.289096117019653,-1.96,-0.71,1.74,2.71
31.293097019195557,-2.33,-0.89,0.95,2.66
31.296714067459106,-2.14,-0.49,0.07,2.19
31.298982858657837,-1.56,-0.08,-0.47,1.63
