time,ax,ay,az,atotal
0.0017719268798828125,0.47,0.02,-0.02,0.47
0.0029358863830566406,0.22,0.17,-0.21,0.34
0.004127979278564453,0.04,0.08,0.06,0.1
0.007562875747680664,-0.05,-0.08,0.13,0.16
0.008751869201660156,-0.15,-0.11,-0.04,0.19
0.02695178985595703,-0.15,0.02,-0.09,0.17
0.02811288833618164,-0.13,0.09,-0.06,0.16
0.02936697006225586,-0.13,0.11,-0.03,0.17
0.033566951751708984,-0.16,0.1,-0.06,0.19
0.04357790946960449,-0.08,-0.01,-0.08,0.11
0.09968709945678711,0.05,0.05,-0.12,0.13
0.10108280181884766,0.18,0.03,-0.3,0.35
0.10227298736572266,0.17,-0.08,-0.38,0.42
0.1049799919128418,0.12,-0.08,-0.31,0.34
0.10721683502197266,0.1,-0.02,-0.22,0.24
0.10915899276733398,0.11,0.09,-0.19,0.23
0.1269240379333496,0.2,0.12,-0.17,0.28
0.12826895713806152,0.26,0.06,-0.21,0.33
0.13284778594970703,0.23,-0.04,-0.32,0.39
0.14280390739440918,0.17,-0.06,-0.36,0.4
0.19870710372924805,0.18,-0.02,-0.34,0.38
0.20006608963012695,0.16,0.05,-0.41,0.44
0.2011728286743164,0.08,0.16,-0.63,0.65
0.20410776138305664,-0.06,0.16,-0.56,0.58
0.20648908615112305,-0.03,0.0,-0.38,0.38
0.2084519863128662,0.11,-0.08,-0.5,0.51
0.2125859260559082,0.13,-0.05,-0.59,0.6
0.22234010696411133,0.2,-0.04,-0.48,0.52
0.23265409469604492,0.42,-0.07,-0.43,0.6
0.24217796325683594,0.55,-0.03,-0.24,0.6
0.2976369857788086,0.69,0.03,-0.13,0.7
0.2989840507507324,0.79,0.04,-0.31,0.84
0.3001670837402344,0.8,0.1,-0.46,0.92
0.30307579040527344,1.0,0.1,-0.54,1.14
0.3053429126739502,1.4,-0.11,-0.74,1.58
0.30789899826049805,1.85,-0.5,-0.64,2.02
0.31182289123535156,2.79,-0.91,-0.01,2.93
0.3287808895111084,4.0,-1.2,0.1,4.17
0.33159589767456055,4.93,-1.09,0.23,5.05
0.341519832611084,5.25,-0.62,0.51,5.31
0.35151195526123047,4.66,-0.13,0.31,4.67
0.40171098709106445,4.03,-0.01,0.57,4.07
0.4032769203186035,4.27,-0.16,0.84,4.35
0.4044780731201172,4.58,-0.23,0.76,4.64
0.4077749252319336,4.4,-0.14,0.36,4.41
0.40890979766845703,3.88,0.17,-0.22,3.88
0.42722082138061523,3.28,0.41,-0.44,3.33
0.4284379482269287,2.82,0.37,-0.56,2.89
0.43120288848876953,2.35,0.2,-0.96,2.54
0.4408149719238281,1.86,0.18,-1.78,2.58
0.4508380889892578,1.37,0.32,-2.52,2.88
0.5010948181152344,0.84,0.34,-2.48,2.64
0.5026998519897461,0.22,0.14,-2.17,2.18
0.5039119720458984,-0.36,-0.21,-1.91,1.95
0.5055539608001709,-0.99,-0.58,-1.23,1.68
0.5080070495605469,-1.43,-0.77,0.08,1.62
0.5103330612182617,-1.72,-0.76,1.26,2.26
0.5277481079101562,-2.04,-0.47,2.03,2.91
0.5299909114837646,-2.17,0.0,2.6,3.38
0.5400080680847168,-2.31,0.38,3.24,3.99
0.5503239631652832,-2.57,0.59,3.67,4.51
0.6007118225097656,-2.71,0.68,3.66,4.6
0.6022629737854004,-2.76,0.69,3.44,4.46
0.6034619808197021,-2.66,0.87,3.17,4.22
0.6064109802246094,-2.27,1.38,2.65,3.75
0.6075239181518555,-1.58,1.93,1.82,3.08
0.609893798828125,-0.82,2.07,0.87,2.39
0.619269847869873,-0.22,1.84,-0.18,1.86
0.6298108100891113,0.1,1.27,-1.13,1.7
0.6394457817077637,0.26,0.62,-1.61,1.74
0.6497430801391602,0.49,0.38,-1.98,2.07
0.700380802154541,0.62,0.54,-2.5,2.63
0.7019548416137695,0.54,0.86,-2.71,2.89
0.7031550407409668,0.36,1.3,-3.11,3.38
0.7061209678649902,0.33,1.36,-3.5,3.76
0.7085509300231934,0.19,1.16,-3.74,3.92
0.7096939086914062,-0.15,0.88,-3.64,3.74
0.7282519340515137,-0.59,0.55,-3.25,3.34
0.7295107841491699,-1.16,0.34,-2.94,3.17
0.7385110855102539,-1.42,0.44,-2.85,3.21
0.7488250732421875,-1.24,1.18,-2.91,3.37
0.8050827980041504,-0.81,1.96,-2.91,3.6
0.8065218925476074,-0.36,2.23,-3.12,3.85
0.8077988624572754,-0.02,2.1,-3.2,3.82
0.8103017807006836,-0.32,1.2,-2.26,2.57
0.8128519058227539,-1.44,0.13,-0.37,1.49
0.8154010772705078,-2.97,-0.35,0.48,3.02
0.8179450035095215,-4.32,-0.59,0.34,4.37
0.8282580375671387,-5.87,-1.25,0.6,6.03
0.8382229804992676,-7.01,-2.59,1.78,7.68
0.8480520248413086,-6.59,-4.09,2.25,8.07
0.9041171073913574,-5.28,-4.51,1.72,7.15
0.9054849147796631,-3.08,-3.26,2.04,4.92
0.9076337814331055,-0.2,-1.41,0.48,1.5
0.9088230133056641,1.37,0.3,-2.69,3.03
0.9268040657043457,1.41,1.93,-2.96,3.8
0.9283149242401123,1.56,2.84,-2.55,4.12
0.9309449195861816,1.93,2.6,-2.7,4.21
0.9335858821868896,2.1,1.45,-2.98,3.92
0.9371118545532227,2.04,0.24,-2.58,3.29
0.9477620124816895,1.58,-0.6,-1.73,2.41
1.00392484664917,1.11,-0.95,-2.21,2.64
1.005293846130371,1.33,-0.65,-2.12,2.58
1.0078198909759521,1.65,-0.5,-0.47,1.78
1.0090417861938477,1.23,-0.65,1.14,1.79
1.0278398990631104,0.04,-0.8,1.02,1.29
1.0290608406066895,-0.93,-0.79,-0.05,1.22
1.0302269458770752,-1.21,-0.49,-0.92,1.59
1.0329980850219727,-0.71,-0.23,-1.1,1.32
1.0364837646484375,0.12,-0.08,-1.0,1.01
1.046647071838379,0.61,0.03,-1.11,1.26
1.103384017944336,0.89,0.21,-1.1,1.43
1.104719877243042,1.18,0.31,-0.85,1.48
1.1068658828735352,1.27,0.31,-0.6,1.43
1.1079459190368652,0.95,0.23,-0.28,1.01
1.1099910736083984,0.39,0.03,-0.1,0.4
1.1124610900878906,-0.25,-0.11,0.13,0.3
1.11590576171875,-1.04,-0.14,0.31,1.09
1.1258468627929688,-1.7,-0.24,0.45,1.77
1.136152982711792,-2.01,-0.27,0.71,2.14
1.1459670066833496,-1.97,-0.21,0.95,2.19
1.1558449268341064,-1.95,-0.1,1.04,2.21
1.2079968452453613,-2.14,-0.12,1.09,2.4
1.2093238830566406,-2.53,-0.42,1.38,2.91
1.211432933807373,-2.92,-0.76,1.86,3.54
1.2139558792114258,-3.32,-0.93,2.17,4.07
1.2164959907531738,-3.81,-0.93,2.06,4.42
1.2188258171081543,-4.2,-0.87,1.98,4.72
1.2253599166870117,-4.41,-1.08,2.44,5.15
1.2354979515075684,-4.59,-1.6,2.65,5.53
1.2452030181884766,-4.73,-2.36,2.46,5.83
1.255228042602539,-4.6,-3.23,2.6,6.19
1.3072419166564941,-3.98,-4.17,3.49,6.73
1.3088629245758057,-3.1,-5.19,4.01,7.25
1.31026291847229,-2.46,-7.56,5.33,9.57
1.3129699230194092,-2.37,-12.07,6.08,13.72
1.3154029846191406,-3.05,-17.0,5.83,18.22
1.3179359436035156,-4.01,-18.11,3.4,18.85
1.3244309425354004,-3.88,-13.79,0.43,14.33
1.3345770835876465,-2.21,-11.12,0.4,11.34
1.3444437980651855,0.2,-11.17,-0.31,11.17
1.3545570373535156,2.11,-7.66,-2.28,8.26
1.4066410064697266,2.81,-1.95,-4.53,5.67
1.4082698822021484,1.39,1.66,-3.05,3.74
1.40948486328125,-2.3,2.94,1.48,4.01
1.4299287796020508,-5.61,3.5,2.86,7.2
1.4312288761138916,-6.72,4.31,4.1,8.97
1.4324839115142822,-5.32,5.1,7.66,10.62
1.4337449073791504,-3.54,6.43,9.56,12.05
1.4367070198059082,-2.98,7.87,7.92,11.55
1.4441709518432617,-4.0,9.36,6.6,12.13
1.4538989067077637,-5.92,10.58,6.96,13.97
1.5068798065185547,-7.04,10.76,7.67,14.97
1.5084609985351562,-6.55,10.05,6.97,13.87
1.5096399784088135,-4.85,9.08,5.27,11.56
1.5124640464782715,-2.83,7.97,3.75,9.25
1.5149309635162354,-1.1,6.83,3.2,7.62
1.517427921295166,0.58,5.65,3.56,6.7
1.5229477882385254,3.27,4.73,0.91,5.82
1.5333271026611328,6.78,3.32,-3.07,8.14
1.5431029796600342,9.9,2.18,-5.48,11.52
1.5531058311462402,12.45,0.1,-6.38,13.98
1.6113758087158203,12.01,-1.26,-6.83,13.87
1.6130647659301758,9.09,-0.65,-6.6,11.25
1.6142997741699219,5.84,0.86,-6.02,8.43
1.6172258853912354,2.69,2.6,-5.29,6.47
1.619764804840088,1.54,3.17,-3.95,5.29
1.6223058700561523,1.67,2.93,-2.95,4.48
1.6249279975891113,1.76,2.14,-2.39,3.65
1.63270902633667,1.78,1.63,-2.44,3.43
1.6440720558166504,2.39,1.83,-2.28,3.77
1.652493953704834,3.67,1.83,-2.58,4.84
1.7102937698364258,4.6,1.99,-3.24,5.96
1.711958885192871,4.81,2.05,-3.06,6.05
1.7131259441375732,4.94,2.21,-2.74,6.06
1.7160468101501465,5.11,2.15,-2.29,5.99
1.7185978889465332,4.67,1.7,-2.34,5.49
1.7211039066314697,3.85,1.2,-2.7,4.85
1.7235939502716064,3.04,1.01,-1.52,3.54
1.7324419021606445,1.98,0.75,-1.31,2.48
1.7416157722473145,0.97,0.32,-1.16,1.54
1.751619815826416,0.13,0.05,-0.84,0.85
1.809931755065918,-0.18,-0.57,0.12,0.6
1.8116049766540527,-0.29,-0.74,1.02,1.29
1.812856912612915,-0.09,-0.24,1.24,1.26
1.8157730102539062,1.53,-0.01,2.3,2.76
1.818120002746582,4.38,0.62,1.71,4.74
1.8206868171691895,8.08,2.34,-9.36,12.58
1.8232359886169434,8.5,0.63,-13.74,16.16
1.8309509754180908,4.09,-5.33,2.88,7.3
1.8408288955688477,-6.03,-9.77,8.97,14.56
1.8512420654296875,-17.23,-7.22,-3.67,19.03
1.9105379581451416,-30.38,-8.61,-2.92,31.71
1.912160873413086,-34.32,-17.73,2.59,38.71
1.913412094116211,-7.98,-31.23,17.42,36.63
1.9163239002227783,19.92,-25.59,17.82,37.0
1.9187707901000977,15.81,-4.73,0.04,16.5
1.9213769435882568,3.97,9.07,-14.11,17.23
1.9238767623901367,1.19,17.16,-10.52,20.16
1.9301769733428955,0.72,20.9,-10.19,23.26
1.940310001373291,4.1,14.93,-10.93,18.95
1.950355052947998,9.07,5.89,-8.66,13.85
1.9599900245666504,9.97,-1.28,-4.79,11.13
2.014786958694458,6.83,-7.22,-2.43,10.23
2.016162872314453,1.99,-10.78,-1.33,11.04
2.0173559188842773,-0.88,-9.99,2.3,10.28
2.020354986190796,-1.75,-5.55,4.37,7.27
2.0229179859161377,-1.79,-1.2,4.76,5.22
2.0254788398742676,-1.69,1.23,4.4,4.87
2.029545783996582,-1.59,2.24,3.6,4.52
2.044273853302002,-1.97,2.34,1.8,3.54
2.0496809482574463,-2.66,2.13,0.0,3.4
2.059298038482666,-2.94,2.07,-0.19,3.6
2.114165782928467,-2.77,1.41,0.94,3.24
2.1155548095703125,-2.95,0.8,0.98,3.2
2.1167187690734863,-3.25,0.67,0.16,3.32
2.119692802429199,-2.59,0.22,0.23,2.6
2.1222338676452637,-1.42,-1.02,1.8,2.5
2.1252551078796387,-1.17,-2.2,2.26,3.36
2.128838062286377,-1.93,-2.66,1.49,3.6
2.143995761871338,-2.1,-3.02,0.79,3.76
2.148672103881836,-2.01,-3.05,0.44,3.67
2.1587069034576416,-2.16,-2.46,0.32,3.28
2.214207887649536,-2.21,-0.69,-1.08,2.55
2.2155709266662598,-1.56,1.44,-0.44,2.16
2.2167558670043945,-1.07,2.64,0.83,2.96
2.2197370529174805,-0.52,2.32,0.44,2.41
2.2222609519958496,0.25,1.1,-0.08,1.13
2.225249767303467,1.1,-0.07,-0.17,1.11
2.2283120155334473,1.39,-2.31,-0.53,2.74
2.2444419860839844,0.79,-6.3,-0.55,6.37
2.248042106628418,-0.3,-12.14,0.67,12.16
2.258286952972412,-1.96,-18.49,0.22,18.59
2.313807964324951,-3.87,-18.1,-3.94,18.92
2.3151988983154297,-2.09,-17.51,-1.37,17.68
2.3164238929748535,-0.47,-19.6,0.59,19.61
2.319406032562256,-3.02,-18.84,-2.81,19.28
2.3219339847564697,-6.72,-16.58,-1.17,17.92
2.3242697715759277,-8.06,-12.1,0.6,14.55
2.32773494720459,-6.84,-7.03,2.06,10.02
2.337594985961914,-5.32,-2.34,3.67,6.87
2.3476719856262207,-5.25,1.26,4.16,6.81
2.357372760772705,-7.23,6.04,7.93,12.31
2.418200969696045,-9.77,12.97,13.61,21.18
2.419534921646118,-12.07,18.21,10.02,24.03
2.421665906906128,-14.1,16.18,4.69,21.96
2.4241909980773926,-13.03,9.57,6.67,17.48
2.4252939224243164,-10.38,4.94,8.53,14.31
2.4273109436035156,-8.27,2.07,6.71,10.84
2.4299139976501465,-7.02,1.42,4.66,8.54
2.4366350173950195,-6.01,1.45,3.7,7.2
2.4466447830200195,-4.96,1.44,2.38,5.68
2.4567809104919434,-3.91,1.24,0.44,4.12
2.5172948837280273,-2.17,0.79,-1.06,2.54
2.518681049346924,0.32,0.51,-2.57,2.63
2.520719051361084,3.5,0.15,-3.43,4.9
2.523448944091797,6.59,-0.01,-4.14,7.78
2.5258259773254395,9.18,0.39,-5.56,10.73
2.5269839763641357,11.65,0.55,-7.68,13.96
2.5457708835601807,13.27,-0.11,-9.86,16.53
2.5470328330993652,12.68,0.02,-11.14,16.87
2.548330783843994,10.7,1.67,-10.72,15.23
2.5560998916625977,8.43,4.17,-9.98,13.71
2.617067813873291,5.65,5.21,-9.04,11.86
2.618652820587158,4.04,4.35,-7.52,9.58
2.61982798576355,3.46,2.7,-5.87,7.32
2.6227898597717285,3.0,1.31,-4.78,5.79
2.625457763671875,3.24,0.29,-4.48,5.53
2.6265859603881836,4.19,-0.24,-4.1,5.86
2.6461009979248047,4.47,0.29,-3.41,5.62
2.647468090057373,4.36,1.01,-3.6,5.74
2.6500089168548584,4.88,2.13,-4.12,6.73
2.6551098823547363,6.15,3.13,-3.54,7.75
2.716465950012207,6.89,3.47,-3.59,8.5
2.7180559635162354,6.05,3.11,-3.22,7.52
2.719183921813965,4.17,2.9,-2.47,5.64
2.7270660400390625,4.22,2.71,-2.52,5.61
2.7287120819091797,7.54,2.25,-10.51,13.12
2.7313618659973145,10.44,-0.41,-9.16,13.89
2.7339329719543457,8.76,-6.55,-3.46,11.47
2.736470937728882,-3.13,-9.65,13.71,17.05
2.7449889183044434,-14.14,-10.46,-0.28,17.59
2.755021095275879,-21.66,-11.44,0.46,24.49
2.765377998352051,-23.76,-9.05,1.65,25.47
2.8247790336608887,-20.16,-11.22,-5.14,23.63
2.826213836669922,-9.47,-25.78,10.77,29.5
2.8282008171081543,11.91,-27.47,15.63,33.77
2.8304898738861084,16.67,-11.96,8.25,22.11
2.8329319953918457,6.96,1.79,-3.71,8.08
2.835481882095337,3.07,8.57,-10.11,13.6
2.837845802307129,1.64,12.67,-11.7,17.32
2.8441529273986816,0.98,13.38,-7.78,15.5
2.854001998901367,1.61,9.27,-5.58,10.93
2.8638908863067627,4.5,4.75,-6.05,8.91
2.9191818237304688,6.33,1.39,-2.56,6.96
2.92055606842041,4.41,-1.41,-1.17,4.77
2.921760082244873,1.16,-4.41,0.51,4.58
2.9245457649230957,-1.73,-7.14,1.99,7.61
2.925640106201172,-3.64,-8.14,2.3,9.2
2.928778886795044,-2.64,-7.25,3.13,8.32
2.9331178665161133,-2.06,-4.23,3.42,5.81
2.9430418014526367,-3.16,-0.2,1.93,3.7
2.952929973602295,-3.44,1.92,0.77,4.01
2.963283061981201,-2.76,3.33,0.1,4.32
3.0195748805999756,-1.72,3.85,0.47,4.24
3.0208868980407715,-0.5,3.59,0.41,3.64
3.0220999717712402,0.59,3.1,-0.04,3.15
3.024951934814453,0.96,2.39,0.5,2.62
3.0260229110717773,0.76,1.5,1.19,2.06
3.0290307998657227,0.14,0.09,1.23,1.24
3.0324809551239014,-0.97,-1.41,1.14,2.05
3.0424118041992188,-1.9,-2.6,0.09,3.22
3.0526108741760254,-2.1,-3.48,0.07,4.06
3.0623018741607666,-1.68,-3.44,0.45,3.85
3.1183979511260986,-1.15,-1.84,0.64,2.26
3.1197237968444824,-1.2,0.32,0.72,1.43
3.1209487915039062,-1.23,2.2,1.35,2.85
3.123898983001709,-1.32,3.95,0.95,4.27
3.126300811767578,-1.6,5.26,-0.76,5.55
3.1274139881134033,-1.19,5.06,-1.1,5.31
3.144211769104004,-0.82,2.45,-1.8,3.14
3.145730972290039,-0.56,-1.87,-0.42,1.99
3.151655912399292,-0.28,-6.02,-0.23,6.03
3.1616969108581543,0.36,-9.57,-0.74,9.6
3.2239508628845215,0.77,-12.09,-0.22,12.11
3.2253828048706055,0.38,-11.68,-0.97,11.72
3.22662091255188,-0.19,-10.38,-1.02,10.43
3.2296109199523926,-0.3,-11.29,-0.56,11.3
3.2319350242614746,0.05,-13.71,-0.87,13.73
3.2344069480895996,-0.17,-16.25,-1.12,16.28
3.236764907836914,-1.78,-16.91,-1.68,17.08
3.2408390045166016,-3.71,-16.21,-1.67,16.71
3.251317024230957,-4.45,-14.55,-1.71,15.31
3.261620044708252,-3.63,-10.33,-1.58,11.06
3.324389934539795,-3.64,-6.59,0.81,7.57
3.3257718086242676,-4.75,-3.99,3.78,7.26
3.3269569873809814,-5.65,-0.7,3.79,6.83
3.3298399448394775,-6.24,3.71,2.89,7.81
3.3323898315429688,-7.12,8.51,4.92,12.13
3.334892988204956,-8.24,13.78,8.51,18.17
3.3374128341674805,-8.09,16.05,7.54,19.49
3.340280055999756,-7.92,12.52,1.87,14.93
3.35050892829895,-9.47,7.68,1.27,12.25
3.360262870788574,-10.35,5.05,6.69,13.31
3.4237470626831055,-9.82,3.13,9.04,13.7
3.4251060485839844,-8.93,2.46,6.34,11.22
3.42648983001709,-7.95,2.88,3.7,9.22
3.429597854614258,-6.78,3.56,3.35,8.35
3.431853771209717,-5.55,3.4,3.31,7.3
3.4343438148498535,-4.53,2.69,2.8,5.96
3.436872959136963,-3.52,2.07,2.25,4.66
3.4396090507507324,-1.52,1.65,0.66,2.33
3.4500129222869873,1.12,1.03,-1.17,1.91
3.459496021270752,3.09,0.23,-2.02,3.69
3.522995948791504,3.74,-0.88,-1.33,4.06
3.524336814880371,3.05,-1.72,-1.47,3.79
3.5255138874053955,3.3,-2.56,-3.43,5.4
3.527679920196533,4.76,-2.5,-5.47,7.66
3.5299079418182373,6.63,-2.02,-6.34,9.39
3.533133029937744,7.47,-0.92,-6.77,10.12
3.5350849628448486,7.13,-0.1,-8.15,10.82
3.5389668941497803,7.19,0.2,-9.84,12.18
3.5492289066314697,8.07,0.09,-10.16,12.97
3.5587968826293945,9.54,-0.51,-9.33,13.35
3.5690908432006836,9.36,-0.72,-7.71,12.14
3.6268739700317383,6.7,0.5,-6.13,9.09
3.6284780502319336,3.9,2.36,-5.48,7.12
3.6296169757843018,2.53,3.46,-4.37,6.12
3.632434844970703,2.67,3.46,-3.69,5.71
3.6347548961639404,4.04,2.76,-3.44,5.98
3.6372809410095215,5.57,2.17,-3.26,6.8
3.639826774597168,5.9,2.03,-2.95,6.9
3.6482300758361816,4.97,2.44,-2.64,6.13
3.6582798957824707,3.41,2.73,-2.12,4.85
3.6685879230499268,1.88,2.93,-1.53,3.8
3.7258529663085938,1.44,3.2,0.28,3.52
3.727484941482544,4.91,3.3,-2.89,6.58
3.7286157608032227,9.63,2.03,-13.07,16.36
3.731626033782959,12.44,-2.89,-14.88,19.6
3.734178066253662,7.36,-8.29,10.31,15.13
3.736693859100342,-7.8,-8.05,8.86,14.28
3.7392420768737793,-20.88,-8.71,-5.48,23.27
3.7483139038085938,-26.23,-8.97,-5.58,28.27
3.758363962173462,-17.65,-12.39,1.04,21.58
3.7680797576904297,-11.32,-21.53,11.06,26.72
3.826202869415283,-0.39,-26.62,13.22,29.72
3.8278298377990723,8.14,-18.72,11.79,23.57
3.828981876373291,6.41,-6.14,2.23,9.15
3.831885814666748,5.26,0.64,-3.38,6.28
3.834412097930908,3.29,5.22,-6.75,9.14
3.8369619846343994,1.67,7.39,-8.55,11.42
3.8394739627838135,2.12,6.59,-7.47,10.18
3.8468170166015625,4.73,3.67,-2.47,6.47
3.856812000274658,6.96,2.09,-4.36,8.47
3.866943836212158,6.56,2.02,-5.06,8.52
3.926356792449951,3.8,3.25,-2.04,5.4
3.927933931350708,0.87,4.63,-1.96,5.1
3.9291229248046875,-1.07,5.14,-0.81,5.31
3.932088851928711,-2.5,5.1,0.12,5.68
3.9343769550323486,-3.16,4.67,0.26,5.64
3.936911106109619,-2.01,3.01,1.01,3.75
3.9393348693847656,-0.83,1.49,1.37,2.18
3.9460930824279785,0.34,-0.19,0.94,1.01
3.956195831298828,0.58,-1.46,1.36,2.07
3.966446876525879,0.0,-1.88,-0.09,1.88
4.029772758483887,-0.89,-2.13,-0.88,2.47
4.031320095062256,-2.01,-2.48,0.08,3.19
4.032510757446289,-3.1,-2.69,-0.43,4.12
4.035476922988892,-2.63,-3.01,0.5,4.02
4.038019895553589,-1.4,-2.84,1.45,3.48
4.040526866912842,-0.66,-2.13,1.1,2.48
4.043076038360596,-0.38,-1.37,1.05,1.76
4.045486927032471,-0.27,-0.66,1.23,1.42
4.062095880508423,-0.11,-0.05,1.32,1.32
4.065203905105591,-0.11,0.13,1.46,1.46
4.1302337646484375,-0.2,0.08,1.05,1.07
4.131818771362305,-0.39,-0.53,0.57,0.87
4.132969856262207,-0.6,-1.68,0.37,1.82
4.135966777801514,-0.8,-2.68,-0.46,2.83
4.138391971588135,-0.81,-3.64,-0.6,3.77
4.140851020812988,-1.0,-4.62,-0.63,4.76
4.143287897109985,-1.74,-5.42,-1.14,5.8
4.145144939422607,-2.28,-6.35,-1.13,6.84
4.161793947219849,-2.24,-7.62,-0.72,7.97
4.164612770080566,-1.68,-8.97,0.06,9.12
4.2289018630981445,-1.36,-10.8,0.64,10.9
4.230371952056885,-1.25,-12.74,-1.32,12.86
4.231514930725098,0.21,-15.48,-0.06,15.48
4.234452962875366,-0.54,-16.95,1.02,16.98
4.236782073974609,-3.67,-16.38,-2.37,16.95
4.239317893981934,-4.78,-17.83,-0.55,18.46
4.241786003112793,-5.18,-19.71,0.34,20.38
4.243901968002319,-5.24,-20.5,-0.04,21.15
4.254264831542969,-5.18,-15.23,0.17,16.08
4.26397705078125,-5.93,-6.85,-0.61,9.08
4.328718900680542,-8.25,-2.28,-0.35,8.56
4.330066919326782,-11.52,0.22,1.66,11.64
4.331284999847412,-13.77,1.94,1.88,14.03
4.334251880645752,-13.57,3.83,-1.53,14.18
4.336808919906616,-11.49,5.37,-3.33,13.11
4.339339971542358,-9.11,4.45,-0.66,10.16
4.34183406829834,-7.61,1.25,3.27,8.37
4.343239784240723,-6.09,-1.67,3.3,7.12
4.35358190536499,-4.4,-1.91,1.47,5.01
4.363250970840454,-3.71,-0.61,-0.02,3.75
4.373342037200928,-4.05,0.18,-0.03,4.05
4.432185888290405,-5.55,0.76,0.37,5.61
4.433757781982422,-6.06,-0.21,0.43,6.07
4.434983968734741,-6.31,-0.68,-0.26,6.35
4.446307897567749,-6.39,-0.84,-1.54,6.62
4.447912931442261,-5.94,-1.86,-2.97,6.89
4.450469970703125,-5.9,-2.55,-3.23,7.19
4.453094005584717,-6.05,-3.17,-2.23,7.18
4.455641984939575,-6.37,-4.24,-2.6,8.08
4.462693929672241,-7.1,-4.97,-5.45,10.23
4.472806930541992,-7.49,-5.52,-8.54,12.62
4.531810760498047,-6.58,-6.97,-10.84,14.47
4.5333380699157715,-3.98,-8.74,-11.27,14.8
4.534543991088867,-1.75,-9.38,-10.9,14.48
4.546206951141357,-1.31,-8.24,-12.1,14.69
4.547770023345947,-1.28,-5.54,-15.22,16.24
4.550321102142334,-0.81,-1.95,-17.46,17.58
4.552872896194458,-0.05,1.64,-17.12,17.19
4.555359840393066,1.03,4.56,-16.12,16.78
4.562062978744507,2.8,5.92,-16.14,17.41
4.571939945220947,4.56,4.97,-15.51,16.91
4.630875110626221,5.6,2.99,-13.21,14.65
4.632450103759766,5.43,1.56,-10.87,12.25
4.633652925491333,4.0,0.65,-9.15,10.0
4.636574983596802,2.55,0.08,-8.15,8.53
4.639115810394287,1.52,-0.48,-7.23,7.4
4.64169979095459,0.86,-0.86,-6.56,6.67
4.642755031585693,0.81,-0.39,-6.54,6.6
4.6511030197143555,1.11,0.94,-6.98,7.12
4.661131858825684,1.94,2.38,-7.67,8.26
4.671322822570801,3.13,2.87,-7.68,8.77
4.730198860168457,3.96,2.92,-6.76,8.36
4.73173189163208,5.37,2.36,-7.1,9.2
4.732945919036865,7.64,1.95,-9.04,11.99
4.735604763031006,9.75,2.24,-8.86,13.36
4.738025903701782,10.38,2.0,-6.89,12.61
4.740583896636963,8.53,0.78,-2.97,9.06
4.743116855621338,3.38,-2.72,7.95,9.05
4.750733852386475,-3.24,-8.7,5.73,10.9
4.762192964553833,-6.2,-13.82,-3.27,15.49
4.770370006561279,-3.43,-10.29,2.17,11.06
4.836565971374512,0.29,-1.81,5.33,5.63
4.838166952133179,2.23,2.86,1.0,3.76
4.83931303024292,2.87,5.07,-4.33,7.25
4.842068910598755,3.51,5.78,-6.28,9.22
4.843146800994873,4.11,5.1,-4.88,8.16
4.846324920654297,4.29,3.0,-2.83,5.95
4.848849773406982,2.75,0.29,-3.66,4.58
4.85135293006897,1.21,-1.87,-6.8,7.15
4.859709978103638,1.0,-2.49,-5.46,6.08
4.869959831237793,2.18,-2.22,-1.52,3.46
4.934991836547852,2.81,-1.94,1.09,3.58
4.936518907546997,1.2,-1.35,0.85,1.99
4.937737941741943,-1.19,-0.62,0.34,1.38
4.940695762634277,-2.33,0.11,0.17,2.33
4.943263053894043,-2.11,0.36,0.08,2.14
4.944386005401611,-1.35,0.44,0.6,1.54
4.962003946304321,-0.16,0.29,-0.19,0.38
4.963485956192017,0.46,0.36,-0.83,1.01
4.9660749435424805,0.7,0.23,-0.91,1.17
4.968936920166016,1.35,0.03,-0.7,1.52
5.034198760986328,1.99,-0.23,-0.71,2.12
5.035674095153809,2.43,-0.42,-0.39,2.49
5.036809921264648,2.37,-0.6,0.09,2.44
5.0387609004974365,1.48,-0.41,0.37,1.57
5.041236877441406,0.34,0.23,0.13,0.43
5.043792963027954,-0.03,0.34,0.09,0.35
5.044888973236084,-0.37,0.38,0.48,0.71
5.062432765960693,-1.13,0.39,0.64,1.35
5.063689947128296,-1.93,0.21,1.17,2.26
5.068249940872192,-2.74,-0.07,1.26,3.01
5.134038925170898,-2.85,-0.2,0.92,3.0
5.13559889793396,-2.34,-0.12,0.68,2.43
5.136754989624023,-1.66,0.13,0.76,1.83
5.139662981033325,-1.16,0.16,0.99,1.53
5.142010927200317,-1.04,-0.06,1.29,1.65
5.143040895462036,-0.73,-0.34,0.75,1.1
5.145060062408447,0.14,-0.3,0.02,0.33
5.147931098937988,0.9,-0.07,-0.04,0.9
5.157777786254883,1.31,-0.06,0.46,1.38
5.167773962020874,1.08,0.1,0.03,1.08
5.1774210929870605,0.76,0.44,0.1,0.88
5.238773822784424,0.6,0.38,0.19,0.73
5.240111827850342,0.37,0.12,0.18,0.42
5.2413489818573,-0.2,0.02,-0.01,0.2
5.244391918182373,-0.79,0.04,-0.31,0.84
5.245567798614502,-0.96,0.14,-0.05,0.97
5.262171983718872,-0.92,0.61,0.57,1.24
5.2634358406066895,-0.88,0.55,0.65,1.22
5.266057968139648,-0.95,0.6,0.38,1.18
5.268609046936035,-0.25,0.32,0.42,0.58
5.27672004699707,0.22,-0.17,0.82,0.86
5.338165760040283,-0.01,-0.43,1.08,1.16
5.33951997756958,-0.51,-0.63,1.13,1.39
5.3407368659973145,-1.04,-0.66,0.95,1.55
5.343630790710449,-1.27,-0.33,0.67,1.47
5.344742774963379,-1.36,0.12,0.6,1.49
5.363037109375,-1.34,0.4,0.78,1.6
5.364280939102173,-1.24,0.54,0.93,1.64
5.366844892501831,-1.4,0.29,1.21,1.87
5.369410037994385,-1.77,-0.21,1.06,2.07
5.376059055328369,-1.83,-0.3,0.46,1.91
5.437098979949951,-1.15,0.07,-0.39,1.21
5.438455104827881,-0.05,0.22,-0.21,0.3
5.439662933349609,0.58,0.09,0.69,0.9
5.442358016967773,0.26,-0.19,0.88,0.93
5.443455934524536,-0.59,-0.29,0.7,0.96
5.445358753204346,-0.89,-0.07,-0.44,0.99
5.447797775268555,-0.1,-0.23,-0.13,0.28
5.455721855163574,0.34,-0.64,0.28,0.77
5.465839862823486,0.0,-0.68,0.04,0.68
5.475359916687012,-0.45,-0.14,-0.45,0.65
5.537024974822998,-0.5,0.5,-0.52,0.87
5.538379907608032,-0.58,0.74,-0.56,1.09
5.540513038635254,-1.06,0.5,-0.52,1.28
5.543670892715454,-1.55,0.04,-0.75,1.72
5.544784069061279,-1.51,-0.58,-0.45,1.67
5.562136888504028,-1.4,-1.05,-0.92,1.97
5.563554763793945,-1.38,-1.34,-1.93,2.72
5.566249847412109,-1.27,-2.36,-2.0,3.34
5.568822860717773,-0.51,-4.7,-1.92,5.1
5.574641942977905,0.55,-8.76,-2.08,9.02
5.641990900039673,0.93,-14.7,-2.14,14.88
5.643362045288086,-0.02,-19.28,-3.13,19.53
5.645472049713135,-1.76,-18.44,-2.49,18.69
5.648056983947754,-2.16,-21.72,0.71,21.83
5.650571823120117,-2.54,-24.79,-0.14,24.92
5.652854919433594,-4.73,-23.54,1.07,24.03
5.655334949493408,-6.68,-12.73,-0.8,14.39
5.6577677726745605,-4.29,-4.71,-3.1,7.08
5.6642608642578125,-0.78,-0.85,-1.81,2.14
5.674282073974609,0.77,1.39,-0.72,1.74
5.740776062011719,-0.32,3.75,-0.3,3.77
5.742130756378174,-2.26,6.88,0.79,7.28
5.744342803955078,-3.77,8.81,2.49,9.9
5.747477054595947,-5.16,6.13,7.84,11.21
5.749798774719238,-8.33,1.17,9.59,12.75
5.7522478103637695,-12.42,-0.66,8.61,15.12
5.754788875579834,-12.71,-0.6,8.68,15.4
5.757302761077881,-9.76,0.75,6.6,11.8
5.7633819580078125,-7.93,3.25,5.37,10.11
5.773601055145264,-7.9,4.89,6.58,11.38
5.840295791625977,-7.18,5.47,6.98,11.41
5.8416900634765625,-5.94,5.58,6.49,10.41
5.842926025390625,-5.39,4.92,6.66,9.87
5.84434700012207,-5.21,3.9,5.91,8.79
5.862919807434082,-4.39,2.75,4.79,7.05
5.864168882369995,-3.68,0.99,5.59,6.76
5.866767883300781,-2.96,0.31,5.39,6.15
5.869309902191162,-1.49,0.4,3.35,3.68
5.87184476852417,0.76,0.47,0.31,0.94
5.874457836151123,2.76,1.06,-1.74,3.43
5.939640045166016,3.13,0.67,-1.34,3.47
5.941018104553223,2.5,0.41,-2.0,3.22
5.943530082702637,2.04,0.79,-4.22,4.75
5.944703102111816,3.06,1.45,-7.11,7.87
5.963610887527466,5.65,2.04,-9.66,11.37
5.964890003204346,8.49,2.37,-10.52,13.72
5.9673988819122314,10.34,2.21,-10.6,14.97
5.969887971878052,10.85,1.7,-11.15,15.65
5.972438812255859,10.24,1.12,-11.73,15.61
5.975028038024902,9.73,0.61,-11.11,14.78
5.981782913208008,9.06,0.33,-8.95,12.73
6.044105052947998,7.34,0.47,-7.03,10.17
6.045696973800659,5.1,0.98,-6.16,8.05
6.046889781951904,3.48,1.68,-5.57,6.77
6.0498127937316895,3.0,2.21,-4.7,5.99
6.0523669719696045,3.7,2.42,-3.85,5.86
6.054949760437012,4.69,2.29,-3.91,6.52
6.057477951049805,5.59,2.34,-4.95,7.82
6.061158895492554,6.19,2.35,-4.03,7.75
6.0714030265808105,6.07,2.35,-3.78,7.52
6.081182956695557,6.27,1.25,-2.62,6.9
6.143215894699097,5.84,0.02,-1.08,5.93
6.144798755645752,4.74,-0.25,0.05,4.74
6.146065950393677,5.25,0.44,-6.53,8.39
6.1489667892456055,3.39,-0.17,-11.77,12.24
6.151309013366699,0.43,-5.93,-1.77,6.2
6.15385890007019,-9.57,-15.54,13.65,22.79
6.156157970428467,-21.75,-18.76,6.52,29.45
6.160533905029297,-18.33,-12.77,-0.88,22.35
6.170738935470581,-13.68,-6.18,8.65,17.32
6.181046009063721,-15.24,-10.2,2.22,18.47
6.24348783493042,-6.69,-23.44,3.93,24.69
6.244909763336182,10.62,-24.02,11.02,28.48
6.246095895767212,15.58,-9.05,4.58,18.59
6.249023914337158,13.21,3.25,-4.51,14.33
6.251567840576172,10.21,10.23,-10.49,17.85
6.254140853881836,7.56,15.15,-11.3,20.35
6.256455898284912,2.8,15.97,-6.96,17.64
6.259898900985718,-0.21,11.05,-3.94,11.73
6.270003795623779,0.74,5.53,-2.52,6.12
6.279956817626953,1.44,0.58,-0.66,1.68
6.343042850494385,0.28,-5.82,0.7,5.86
6.344412803649902,-2.31,-14.29,0.37,14.48
6.3456339836120605,-5.79,-16.09,-0.48,17.1
6.348562955856323,-6.32,-9.29,3.54,11.78
6.3508620262146,-4.79,-2.3,2.97,6.08
6.353380918502808,-4.39,1.25,0.31,4.57
6.355873107910156,-3.72,2.5,-0.87,4.56
6.359097957611084,-2.46,2.15,0.19,3.27
6.36932897567749,-1.09,1.69,1.55,2.53
6.379388809204102,-0.62,1.43,0.88,1.78
6.448337078094482,0.02,1.62,-0.76,1.78
6.449542999267578,1.45,1.67,-0.07,2.21
6.450727939605713,1.97,1.51,1.36,2.83
6.453433990478516,1.17,0.58,1.43,1.93
6.455985069274902,-0.15,-1.07,2.02,2.29
6.458532810211182,-1.19,-2.1,1.32,2.75
6.461021900177002,-1.55,-2.76,0.7,3.24
6.462151050567627,-1.07,-3.02,1.14,3.4
6.479850769042969,-0.83,-2.51,1.79,3.19
6.481148958206177,-1.41,-1.87,1.86,2.99
6.546925067901611,-2.01,-0.73,-0.13,2.14
6.548476934432983,-1.27,0.41,-0.32,1.37
6.549571990966797,0.07,-0.16,1.6,1.6
6.552567005157471,0.64,-2.7,1.57,3.18
6.5550971031188965,-0.22,-6.21,1.13,6.31
6.5576300621032715,-1.52,-9.82,1.44,10.04
6.560808897018433,-2.23,-12.43,0.61,12.64
6.561895847320557,-3.17,-13.81,-0.02,14.16
6.579885005950928,-4.29,-14.12,-0.59,14.76
6.581320762634277,-4.6,-14.34,-0.39,15.06
6.647185802459717,-4.88,-14.33,0.2,15.13
6.648753881454468,-5.54,-12.88,1.26,14.07
6.6498870849609375,-6.15,-9.97,2.67,12.01
6.652732849121094,-6.44,-6.83,4.4,10.36
6.655285835266113,-6.41,-3.07,8.1,10.77
6.657838821411133,-6.08,0.55,15.79,16.92
6.660769939422607,-6.02,4.07,14.02,15.79
6.661855936050415,-8.13,10.48,5.43,14.33
6.67949104309082,-11.57,16.56,4.59,20.71
6.681159019470215,-12.68,13.39,7.95,20.08
6.74641489982605,-10.02,5.24,9.01,14.45
6.7479658126831055,-7.06,1.11,6.23,9.48
6.749117851257324,-4.5,0.43,4.89,6.65
6.752033948898315,-1.97,0.45,5.09,5.47
6.754414081573486,0.17,0.42,3.82,3.84
6.7571210861206055,2.2,-0.05,1.29,2.55
6.759593963623047,3.4,0.05,-0.11,3.4
6.760650873184204,4.72,0.96,-0.6,4.85
6.76633882522583,6.57,2.68,-2.66,7.57
6.7762839794158936,8.17,3.86,-4.64,10.15
6.786448955535889,8.25,3.53,-4.95,10.24
6.850706100463867,7.12,2.37,-4.15,8.57
6.852242946624756,6.76,0.21,-4.85,8.32
6.853425979614258,7.48,-2.24,-7.46,10.79
6.8564629554748535,8.22,-3.82,-9.08,12.82
6.859064102172852,8.2,-3.91,-9.02,12.8
6.8614277839660645,7.72,-2.15,-9.42,12.36
6.862569808959961,7.49,0.19,-10.29,12.72
6.879201889038086,7.57,1.9,-10.05,12.72
6.880683898925781,7.46,2.59,-8.45,11.56
6.885504961013794,6.51,2.44,-5.57,8.9
6.9492409229278564,5.39,1.41,-4.04,6.88
6.950854778289795,4.76,0.45,-4.5,6.56
6.95196795463562,4.97,0.07,-4.83,6.93
6.9550018310546875,4.93,0.57,-3.83,6.26
6.95737886428833,4.21,1.5,-2.78,5.26
6.959529876708984,3.28,1.96,-2.16,4.38
6.960722923278809,2.23,2.13,-1.74,3.54
6.965007781982422,1.56,1.95,-1.6,2.96
6.975296974182129,1.31,1.66,-0.89,2.29
6.985083103179932,1.1,1.55,0.32,1.92
7.048297882080078,2.79,1.86,-2.87,4.41
7.049915790557861,5.43,0.57,-5.26,7.58
7.051115036010742,3.96,-2.64,-4.36,6.45
7.054041862487793,-0.86,-6.54,-3.21,7.33
7.0565080642700195,-9.54,-10.6,4.89,15.07
7.059004783630371,-16.28,-11.43,-2.55,20.05
7.061203956604004,-16.71,-10.44,-4.63,20.23
7.06456995010376,-16.57,-11.35,1.16,20.11
7.079733848571777,-9.24,-16.63,9.03,21.05
7.084130764007568,3.96,-19.56,15.52,25.28
7.150296926498413,7.61,-10.48,7.66,15.04
7.151902914047241,3.69,-0.42,-4.0,5.45
7.153083801269531,1.9,3.58,-4.71,6.21
7.155937910079956,2.14,6.14,-4.37,7.83
7.158515930175781,2.63,9.24,-6.54,11.62
7.161055088043213,2.49,10.62,-7.03,12.97
7.162225961685181,3.22,6.86,-5.4,9.3
7.180556774139404,4.9,1.74,-2.53,5.78
7.181797981262207,5.97,-2.27,-1.7,6.6
7.184092998504639,5.39,-5.51,-2.67,8.15
7.25266695022583,3.0,-6.6,-1.08,7.32
7.254116058349609,0.27,-5.45,1.09,5.56
7.255262851715088,-2.15,-3.5,0.83,4.19
7.258178949356079,-3.44,-2.25,0.75,4.17
7.2613019943237305,-3.54,-0.96,1.2,3.85
7.26253080368042,-3.22,0.29,1.1,3.41
7.2807297706604,-2.64,0.42,0.91,2.82
7.281972885131836,-1.8,0.52,0.49,1.93
7.284698009490967,-0.75,0.54,0.04,0.92
7.287390947341919,-0.19,0.91,0.1,0.93
7.352442979812622,-0.05,0.48,0.4,0.62
7.354028940200806,-0.51,0.23,0.86,1.02
7.355177879333496,-0.58,-0.34,1.07,1.26
7.358094930648804,-0.67,-0.87,1.47,1.83
7.360430955886841,-0.78,-0.9,1.77,2.13
7.361526966094971,-1.21,-0.72,2.03,2.47
7.363674879074097,-1.62,-0.47,1.93,2.56
7.366213798522949,-1.65,-0.13,2.42,2.93
7.3720808029174805,-1.91,0.47,2.21,2.95
7.382166862487793,-2.37,0.8,1.72,3.03
7.452264785766602,-2.15,0.91,0.76,2.45
7.453563928604126,-1.32,0.6,0.51,1.53
7.454771995544434,-0.53,-0.39,0.66,0.93
7.457701921463013,0.0,-1.92,0.6,2.01
7.460196018218994,-0.17,-3.66,0.29,3.67
7.461297988891602,-0.39,-5.41,0.28,5.43
7.464387893676758,-0.46,-7.3,0.52,7.33
7.466846942901611,-0.29,-8.33,-0.01,8.33
7.471319913864136,0.18,-8.95,-0.16,8.95
7.4814019203186035,-0.15,-10.3,0.05,10.3
7.551587104797363,-1.3,-12.68,-1.02,12.78
7.552958011627197,-2.58,-13.5,-2.44,13.95
7.5541510581970215,-3.59,-14.38,-2.5,15.03
7.557179927825928,-3.64,-17.05,-0.95,17.46
7.559757947921753,-3.03,-19.72,0.38,19.95
7.560863018035889,-2.72,-18.61,1.77,18.89
7.563004970550537,-2.86,-9.09,2.36,9.81
7.565560817718506,-3.03,-2.34,2.08,4.35
7.570617914199829,-4.17,1.11,2.43,4.95
7.5810089111328125,-6.66,4.24,3.94,8.82
7.590792894363403,-11.19,8.94,8.78,16.79
7.655555963516235,-14.86,13.33,11.92,23.25
7.657164096832275,-13.41,13.91,7.14,20.59
7.658330917358398,-10.47,10.21,3.44,15.02
7.662538051605225,-9.03,5.59,7.37,12.92
7.664228916168213,-8.23,2.05,11.13,13.99
7.681183815002441,-6.99,0.42,8.69,11.16
7.682427883148193,-5.73,1.24,5.35,7.93
7.685036897659302,-4.76,2.59,4.23,6.87
7.687463760375977,-4.23,3.04,4.48,6.87
7.68985390663147,-3.86,2.91,3.78,6.13
7.755611896514893,-3.42,2.99,1.94,4.93
7.757194995880127,-2.48,2.8,-0.22,3.74
7.7583160400390625,-1.06,1.99,-0.86,2.41
7.7626729011535645,0.75,0.74,0.0,1.05
7.764384984970093,2.71,-0.65,0.24,2.79
7.7806267738342285,3.86,-1.14,-2.17,4.57
7.781977891921997,4.9,-0.58,-5.81,7.62
7.7847418785095215,6.13,-0.1,-9.75,11.51
7.7873499393463135,8.28,-0.67,-12.05,14.63
7.789895057678223,10.19,-1.7,-10.0,14.37
7.854856967926025,9.99,-1.89,-6.52,12.07
7.856444835662842,8.25,-1.15,-6.96,10.85
7.857560873031616,6.22,0.54,-9.36,11.25
7.86271595954895,5.18,1.5,-9.84,11.22
7.864512920379639,5.75,1.28,-8.18,10.08
7.867135047912598,6.86,0.45,-7.45,10.13
7.869667053222656,7.18,0.2,-8.55,11.16
7.872160911560059,7.44,0.19,-8.59,11.36
7.878478050231934,8.34,-0.17,-7.23,11.03
7.8883891105651855,8.24,0.6,-6.56,10.54
7.954416990280151,7.26,1.62,-6.25,9.71
7.955946922302246,5.98,2.63,-4.88,8.15
7.957143783569336,4.62,3.8,-2.73,6.57
7.960072994232178,3.84,4.18,-1.3,5.82
7.961178779602051,4.35,3.77,-5.08,7.67
7.964489936828613,5.7,1.9,-7.67,9.74
7.967031002044678,5.63,-3.63,3.85,7.72
7.96956205368042,0.94,-9.93,-3.13,10.45
7.978461980819702,-8.23,-14.0,3.94,16.71
7.9882049560546875,-14.45,-12.4,5.48,19.81
8.063168048858643,-11.57,-6.59,-0.33,13.31
8.064778804779053,-8.28,-2.55,3.46,9.32
8.06601595878601,-8.42,-2.45,-0.51,8.78
8.068939924240112,-9.32,-7.73,1.57,12.2
8.071386814117432,-4.58,-15.73,6.49,17.62
8.073935985565186,4.12,-17.22,5.11,18.42
8.076448917388916,9.29,-13.94,4.03,17.22
8.078932762145996,7.67,-4.47,-0.89,8.92
8.08007287979126,3.76,2.54,-5.41,7.06
8.097725868225098,1.23,5.45,-6.62,8.66
8.160470962524414,-0.42,7.22,-5.49,9.07
8.162002086639404,-0.59,6.7,-4.39,8.03
8.163177013397217,0.69,4.6,-2.34,5.2
8.166175842285156,1.47,2.36,-1.75,3.28
8.168535947799683,1.38,0.93,-0.15,1.67
8.17104697227478,1.88,-1.38,0.0,2.33
8.173628807067871,2.78,-2.74,0.86,3.99
8.17615294456482,2.44,-3.47,2.73,5.04
8.178711891174316,0.94,-3.6,2.34,4.39
8.186508893966675,-0.2,-4.26,0.62,4.3
8.25977087020874,-1.07,-3.27,-0.17,3.44
8.261128902435303,-0.34,-1.26,-0.13,1.31
8.262263774871826,0.03,0.34,0.35,0.48
8.265113830566406,-0.11,1.3,0.47,1.38
8.267635822296143,-1.02,2.29,-0.05,2.5
8.27000093460083,-1.4,3.13,-0.4,3.45
8.272528886795044,-0.93,3.34,0.77,3.55
8.275043964385986,-0.68,2.45,1.78,3.1
8.277493000030518,-0.82,0.95,1.95,2.31
8.28599500656128,-0.75,-0.3,2.13,2.27
8.357397079467773,-0.22,-0.59,2.62,2.69
8.358942031860352,-0.07,-0.47,1.89,1.94
8.360106945037842,-0.61,-0.72,-0.23,0.97
8.361305952072144,-1.42,-1.65,-1.12,2.44
8.380945920944214,-2.07,-2.84,-1.46,3.8
8.38220500946045,-1.96,-3.78,-1.71,4.58
8.384799003601074,-1.34,-4.33,-0.69,4.58
8.387070894241333,-1.25,-4.54,0.18,4.71
8.389672756195068,-1.83,-5.18,-0.22,5.49
8.392313957214355,-2.41,-5.52,-0.71,6.06
8.394969940185547,-2.02,-5.44,0.15,5.8
8.462050914764404,-1.19,-5.38,1.5,5.71
8.463567972183228,-0.73,-5.26,1.2,5.44
8.464732885360718,-0.73,-5.25,-0.15,5.3
8.467441082000732,-1.06,-6.04,-0.47,6.15
8.469976902008057,-1.3,-7.15,-1.21,7.36
8.472208976745605,-1.11,-8.58,-2.05,8.89
8.474685907363892,-1.01,-10.4,-1.57,10.56
8.477179050445557,-1.63,-12.24,-1.08,12.39
8.484502792358398,-2.79,-12.69,-1.6,13.09
8.494144916534424,-3.45,-11.38,-1.71,12.01
8.561184883117676,-3.7,-9.6,0.92,10.32
8.562543869018555,-3.99,-7.54,3.97,9.4
8.564620971679688,-4.36,-4.1,4.1,7.25
8.567197799682617,-5.0,-0.38,3.94,6.37
8.569500923156738,-6.16,3.52,8.0,10.69
8.572023868560791,-7.46,7.42,14.03,17.53
8.574636936187744,-8.73,11.95,10.29,18.02
8.57725477218628,-10.33,15.89,3.98,19.36
8.583569049835205,-11.23,13.05,3.86,17.64
8.593637943267822,-10.68,5.94,6.75,13.96
8.661534786224365,-9.23,1.17,7.02,11.65
8.662884950637817,-6.87,-0.22,5.05,8.52
8.664900779724121,-4.22,0.36,3.32,5.38
8.667481899261475,-1.48,0.64,2.3,2.8
8.670001983642578,0.97,0.31,2.07,2.3
8.672579765319824,2.83,0.06,2.01,3.47
8.675017833709717,4.02,-0.13,0.91,4.12
8.677443981170654,4.34,0.39,-0.88,4.44
8.68306303024292,4.26,1.32,-2.05,4.9
8.692905902862549,4.06,1.92,-1.86,4.86
8.761202812194824,3.06,2.47,-1.73,4.29
8.762784004211426,2.41,2.16,-2.74,4.24
8.763935089111328,2.25,1.35,-3.91,4.7
8.76691484451294,1.94,1.0,-5.25,5.68
8.769131898880005,1.71,0.91,-6.74,7.01
8.771641969680786,1.98,0.42,-7.54,7.8
8.774163961410522,2.86,-0.88,-7.1,7.7
8.776700973510742,4.53,-2.32,-6.12,7.95
8.782169818878174,6.56,-3.15,-5.89,9.36
8.79238510131836,7.42,-2.6,-6.6,10.26
8.8661949634552,7.1,-1.04,-7.11,10.1
8.867531776428223,6.42,0.81,-6.38,9.08
8.86874794960022,5.92,2.15,-5.23,8.18
8.871729850769043,5.59,2.59,-4.73,7.76
8.874261856079102,5.01,2.13,-3.89,6.69
8.876800060272217,4.06,0.97,-2.52,4.87
8.879219055175781,3.03,0.14,-1.79,3.52
8.880321025848389,2.25,0.0,-1.88,2.93
8.897377014160156,2.1,0.65,-2.34,3.21
8.898727893829346,2.0,1.85,-2.18,3.48
8.965588092803955,2.08,2.37,-1.32,3.41
8.967143058776855,2.19,1.87,-0.6,2.94
8.968286991119385,2.22,0.84,-0.63,2.45
8.971121788024902,2.45,-0.22,-0.85,2.6
8.973679065704346,2.79,-0.93,-1.03,3.11
8.976215839385986,2.92,-1.24,-0.99,3.32
8.978761911392212,2.6,-1.2,-0.43,2.89
8.97983694076538,2.12,-0.89,0.13,2.3
8.998301982879639,1.82,-0.33,0.72,1.98
8.999604940414429,2.2,0.47,0.06,2.25
9.066304922103882,3.47,1.0,-3.62,5.11
9.067856788635254,3.84,-0.46,-4.06,5.6
9.069008827209473,1.71,-3.22,-5.32,6.44
9.071776866912842,-1.4,-7.45,1.71,7.77
9.074306964874268,-7.21,-10.49,7.64,14.84
9.076924800872803,-9.73,-8.02,-2.23,12.8
9.079295873641968,-8.98,-5.14,-1.74,10.49
9.080432891845703,-7.74,-5.84,4.26,10.59
9.09802794456482,-5.12,-9.41,5.02,11.83
9.099303960800171,0.16,-11.23,5.74,12.61
9.167309761047363,3.57,-9.27,3.17,10.42
9.168872833251953,4.09,-3.27,-0.2,5.24
9.170044898986816,4.51,2.1,-3.23,5.93
9.17271089553833,4.13,5.12,-3.71,7.55
9.175171852111816,3.19,6.55,-2.57,7.72
9.17770004272461,2.16,6.31,-3.71,7.63
9.178753852844238,1.42,4.05,-3.6,5.6
9.182040929794312,1.43,0.59,-0.46,1.61
9.184542894363403,1.39,-2.86,1.03,3.34
9.189273834228516,0.55,-5.49,-0.01,5.51
9.199363946914673,-1.12,-5.76,-1.18,5.98
9.269978046417236,-2.16,-3.55,-0.46,4.18
9.271326065063477,-2.21,-1.11,0.69,2.56
9.272540092468262,-1.77,0.74,0.7,2.04
9.275491952896118,-1.07,1.53,0.36,1.9
9.2778639793396,-0.49,1.8,0.36,1.89
9.278893947601318,0.0,1.16,0.65,1.32
9.28064489364624,0.6,0.18,0.79,1.0
9.283085823059082,0.78,-0.33,0.34,0.91
9.288619995117188,0.32,-0.3,-0.41,0.6
9.2988920211792,-0.01,0.03,-0.59,0.59
9.3695387840271,-0.23,0.58,0.02,0.62
9.370919942855835,-0.61,0.75,0.31,1.01
9.372142791748047,-1.14,0.6,0.77,1.5
9.375086784362793,-1.5,0.24,1.05,1.84
9.377423763275146,-1.42,-0.17,1.13,1.82
9.37972092628479,-1.19,-0.79,1.71,2.22
9.38219404220581,-1.32,-1.43,2.04,2.81
9.38474178314209,-2.01,-1.76,1.45,3.03
9.38790488243103,-2.33,-0.93,0.31,2.52
9.39791989326477,-1.75,0.4,0.56,1.88
9.469218969345093,-0.93,1.34,0.66,1.75
9.470587968826294,-0.32,1.54,0.03,1.57
9.471796989440918,-0.09,1.23,0.17,1.24
9.474756956100464,-0.35,0.69,-0.05,0.77
9.477315902709961,-0.79,-0.08,0.33,0.85
9.478417873382568,-1.24,-1.26,0.68,1.89
9.480659008026123,-1.52,-1.89,0.43,2.46
9.483123779296875,-1.28,-1.0,0.15,1.63
9.487149953842163,-0.56,0.79,0.59,1.13
9.49760389328003,0.0,1.61,1.19,2.0
9.56891393661499,-0.16,1.06,-0.48,1.17
9.570282936096191,-0.24,-0.04,-1.12,1.14
9.571476936340332,-0.09,-1.01,-0.82,1.3
9.574514865875244,0.09,-2.05,-0.58,2.13
9.576979875564575,0.1,-3.91,0.01,3.91
9.579426765441895,-0.12,-5.98,-0.34,5.99
9.580581903457642,0.0,-7.12,-0.68,7.15
9.597774982452393,0.54,-7.47,-0.49,7.5
9.599324941635132,0.99,-7.9,-0.62,7.98
9.601985931396484,0.9,-9.49,-1.37,9.63
9.6738920211792,0.28,-12.06,-2.41,12.3
9.675375938415527,-0.97,-13.48,-2.82,13.8
9.676506042480469,-2.13,-15.32,-2.05,15.6
9.679276943206787,-3.23,-17.59,-1.08,17.91
9.680739879608154,-4.34,-18.31,-1.23,18.85
9.683348894119263,-5.79,-15.41,0.69,16.47
9.685918807983398,-6.73,-8.56,2.97,11.28
9.688414096832275,-6.49,-4.84,3.62,8.86
9.690907955169678,-6.11,-1.61,3.53,7.23
9.695775032043457,-7.12,2.44,5.42,9.27
9.773460865020752,-9.32,7.65,14.46,18.82
9.77482795715332,-10.81,14.3,15.51,23.7
9.776981830596924,-12.04,19.46,3.23,23.11
9.77951192855835,-14.4,15.86,1.6,21.48
9.780654907226562,-14.45,6.21,9.5,18.37
9.79768180847168,-11.83,-0.04,12.93,17.52
9.799272060394287,-9.4,-1.18,7.69,12.2
9.801798820495605,-6.93,-0.21,2.77,7.46
9.804337978363037,-4.65,0.49,0.35,4.68
9.806778907775879,-3.73,-0.31,1.93,4.21
9.877659797668457,-3.08,-1.74,1.96,4.04
9.87927794456482,-0.56,-2.47,-0.7,2.62
9.88038682937622,2.33,-1.89,-1.74,3.46
9.900049924850464,4.96,-1.35,-2.53,5.72
9.901297092437744,5.35,-0.73,-3.05,6.2
9.903947830200195,4.65,0.89,-5.47,7.23
9.906527996063232,5.0,1.46,-8.02,9.56
9.90895700454712,6.12,1.41,-8.37,10.46
9.911390781402588,6.94,0.22,-6.24,9.33
9.912585973739624,6.94,-1.38,-4.73,8.51
9.984050989151001,5.55,-1.93,-6.46,8.73
9.985547065734863,4.24,-1.13,-8.96,9.97
9.986670970916748,3.99,0.21,-10.71,11.43
9.989613056182861,5.44,1.16,-10.44,11.82
9.99213981628418,7.72,1.54,-7.68,10.99
9.994662761688232,8.71,1.04,-4.95,10.07
9.995768070220947,7.76,0.97,-4.75,9.14
9.998955965042114,6.61,0.83,-5.44,8.6
10.00139594078064,6.18,0.45,-3.92,7.33
10.003949880599976,5.38,0.46,-2.12,5.8
10.006472110748291,4.26,1.1,-1.66,4.7
10.078700065612793,3.13,1.71,-1.63,3.92
10.08021092414856,2.46,2.4,-2.35,4.16
10.081309795379639,2.7,2.8,-2.16,4.44
10.084312915802002,3.72,2.66,-2.21,5.07
10.086777925491333,4.45,2.51,-2.35,5.62
10.089335918426514,4.63,2.4,-2.4,5.74
10.091856002807617,4.63,1.43,-2.33,5.37
10.094172954559326,4.62,0.3,-2.11,5.08
10.096597909927368,4.42,-0.44,-1.58,4.71
10.102881908416748,3.92,-0.6,-0.61,4.01
10.184192895889282,3.63,0.7,-4.02,5.46
10.185513973236084,4.22,0.32,-3.61,5.56
10.18670392036438,2.73,-2.08,-6.9,7.7
10.18970775604248,1.58,-5.74,-8.05,10.01
10.191996097564697,-0.16,-8.84,6.46,10.95
10.194489002227783,-4.73,-8.0,12.15,15.29
10.195528984069824,-8.39,-6.22,0.55,10.45
10.197742938995361,-11.0,-4.96,-3.92,12.68
10.200263023376465,-12.46,-3.05,-2.52,13.07
10.202751874923706,-12.75,-5.04,0.5,13.71
10.278464794158936,-9.05,-13.79,4.36,17.06
10.28002405166626,0.53,-17.33,6.09,18.37
10.281126022338867,7.82,-15.03,5.52,17.81
10.28412675857544,9.01,-7.02,2.83,11.76
10.28657579421997,5.85,2.08,-3.59,7.17
10.289130926132202,4.16,7.42,-6.43,10.66
10.2916898727417,2.86,10.87,-5.49,12.5
10.294161796569824,1.49,11.32,-5.14,12.52
10.296504974365234,1.46,8.16,-3.06,8.83
10.301602840423584,1.54,3.83,-0.97,4.24
10.386528015136719,1.75,0.92,-0.07,1.97
10.387866020202637,1.16,-2.36,0.35,2.65
10.38897705078125,0.1,-5.29,0.83,5.35
10.392049789428711,-1.0,-7.85,0.58,7.93
10.394567012786865,-1.96,-7.73,0.66,8.0
10.395626068115234,-1.59,-5.05,1.5,5.5
10.397780895233154,-0.74,-1.58,1.85,2.54
10.400155067443848,-0.45,0.34,1.04,1.18
10.402674913406372,-1.14,1.71,-0.17,2.06
10.405200958251953,-1.69,2.79,-1.4,3.54
10.481482028961182,-1.39,3.55,-0.44,3.83
10.482994079589844,-0.91,3.35,0.67,3.53
10.484108924865723,-0.79,2.28,0.45,2.45
10.487054824829102,-0.76,0.87,0.44,1.23
10.489566802978516,-0.45,-0.23,1.35,1.44
10.491940021514893,-0.23,-1.04,1.65,1.96
10.494414806365967,-0.59,-2.33,1.52,2.84
10.496842861175537,-1.38,-3.63,0.99,4.0
10.497922897338867,-1.7,-4.09,-0.65,4.47
10.515105962753296,-1.23,-3.41,-0.6,3.67
10.58718204498291,-0.47,-2.62,0.6,2.72
10.588766098022461,-0.02,-2.34,1.06,2.56
10.589993953704834,-0.41,-1.85,-0.46,1.94
10.592777967453003,-0.54,-0.57,-1.4,1.6
10.59523892402649,0.16,0.82,-0.2,0.85
10.596323013305664,0.68,1.03,0.51,1.33
10.599371910095215,0.47,0.03,-0.66,0.81
10.601862907409668,0.02,-1.84,-0.64,1.94
10.604320049285889,-0.64,-4.19,-0.17,4.24
10.606853008270264,-1.01,-6.39,0.25,6.47
10.681241035461426,-0.86,-8.31,0.9,8.4
10.682797908782959,-0.62,-9.45,1.75,9.63
10.683917999267578,-0.6,-8.87,0.91,8.93
10.686922073364258,-0.94,-7.01,-0.86,7.12
10.689270973205566,-0.85,-6.87,-0.78,6.96
10.691786766052246,-0.99,-9.23,-0.37,9.29
10.694191932678223,-2.26,-12.61,-0.44,12.81
10.69666576385498,-4.02,-15.52,0.25,16.03
10.697808980941772,-5.81,-17.26,1.79,18.29
10.715786933898926,-6.87,-18.01,3.55,19.59
10.788120985031128,-6.73,-12.82,4.66,15.21
10.789613962173462,-7.18,-4.51,7.94,11.61
10.79079794883728,-8.53,0.08,9.74,12.94
10.7936429977417,-11.06,4.64,6.78,13.77
10.796418905258179,-14.65,10.99,4.72,18.91
10.797627925872803,-16.73,14.48,3.68,22.43
10.816696882247925,-15.09,9.61,4.98,18.57
10.81797981262207,-11.36,1.56,5.23,12.6
10.820602893829346,-8.34,-2.51,2.38,9.02
10.823158979415894,-5.31,-3.51,1.37,6.51
10.82565689086914,-3.46,-3.45,1.48,5.1
10.899970054626465,-2.68,-4.16,0.22,4.95
10.901293754577637,-2.92,-4.67,-2.04,5.87
10.903404951095581,-3.6,-5.48,-3.17,7.28
10.906114101409912,-3.83,-6.71,-2.83,8.22
10.908636093139648,-3.24,-7.38,-2.43,8.41
10.911066055297852,-2.47,-7.51,-4.2,8.95
10.913498878479004,-1.85,-7.24,-7.53,10.6
10.914649963378906,-1.28,-6.73,-9.21,11.47
10.931843757629395,-0.75,-6.32,-8.03,10.24
10.933090925216675,-0.82,-5.2,-6.98,8.74
11.006983757019043,-1.4,-3.61,-7.25,8.21
11.008534908294678,-2.07,-2.41,-7.88,8.49
11.009655952453613,-2.75,-1.25,-8.05,8.59
11.013317108154297,-3.16,-0.65,-7.92,8.55
11.014496803283691,-3.03,-0.33,-7.41,8.01
11.032766819000244,-2.03,-0.2,-6.99,7.28
11.034010887145996,-0.29,-0.38,-7.11,7.12
11.036612033843994,1.35,-0.48,-7.19,7.33
11.03896689414978,2.25,-0.2,-7.08,7.43
11.041501998901367,1.97,0.1,-6.46,6.75
11.116079807281494,1.23,0.4,-5.61,5.75
11.117640018463135,0.64,0.34,-4.74,4.79
11.118742942810059,0.07,0.05,-3.31,3.31
11.13267183303833,-0.32,-0.89,-3.02,3.16
11.134113788604736,0.37,-1.73,-4.72,5.04
11.136821985244751,1.6,-1.5,-6.69,7.04
11.139402866363525,2.45,-0.88,-7.24,7.69
11.141858100891113,2.69,-1.16,-6.07,6.73
11.144425868988037,2.53,-1.64,-4.1,5.08
11.146935939788818,2.56,-1.66,-3.5,4.64
11.221374034881592,3.07,-1.26,-4.63,5.69
11.222946882247925,3.62,-0.73,-5.57,6.68
11.22414779663086,4.01,-0.06,-5.92,7.15
11.227092981338501,4.1,0.78,-6.02,7.32
11.229789972305298,4.12,1.53,-6.3,7.68
11.230915069580078,3.96,2.03,-6.47,7.85
11.24894380569458,3.79,1.96,-6.27,7.58
11.250187873840332,4.12,1.43,-6.19,7.57
11.252803802490234,4.93,0.96,-6.22,7.99
11.25551986694336,5.51,0.86,-5.72,7.98
11.33070182800293,5.37,1.43,-5.31,7.68
11.332214832305908,5.04,1.86,-5.88,7.96
11.333302021026611,4.71,2.01,-5.91,7.81
11.336381912231445,4.97,1.69,-5.94,7.92
11.338904857635498,5.73,1.06,-6.57,8.78
11.341417789459229,6.08,0.48,-4.81,7.76
11.343831062316895,4.22,-2.22,5.93,7.6
11.346664905548096,-0.59,-5.73,11.86,13.18
11.347806930541992,-2.75,-4.65,-1.39,5.57
11.365607976913452,-1.86,-1.8,-6.71,7.19
11.439986944198608,-0.12,-2.15,-2.87,3.58
11.44154405593872,1.9,-4.09,1.98,4.92
11.442704916000366,2.88,-6.12,3.6,7.66
11.445634841918945,2.23,-6.34,2.11,7.04
11.446708917617798,1.63,-2.16,-0.78,2.81
11.449886798858643,2.08,1.9,-4.6,5.39
11.45232892036438,2.41,3.1,-5.73,6.94
11.454799890518188,2.21,3.29,-4.66,6.11
11.457331895828247,1.14,2.83,-2.78,4.12
11.459858894348145,0.03,1.66,-1.51,2.24
11.535202980041504,-0.67,0.25,-1.25,1.44
11.53670597076416,-0.98,-0.69,-1.67,2.05
11.538750886917114,-0.59,-1.75,-1.6,2.44
11.541350841522217,0.3,-2.25,-0.94,2.45
11.543866872787476,1.26,-2.25,-0.33,2.59
11.546377897262573,1.33,-1.63,0.39,2.13
11.54833984375,1.08,-0.86,0.49,1.46
11.56550407409668,0.78,-0.13,-0.31,0.84
11.567149877548218,0.48,0.21,-0.77,0.93
11.569858074188232,0.39,0.66,-0.67,1.01
11.64608907699585,0.86,0.81,-0.65,1.34
11.648107051849365,1.56,0.71,-0.61,1.81
11.64930009841919,2.0,0.56,-0.76,2.21
11.65220594406128,2.12,0.3,-0.92,2.33
11.654688835144043,1.86,0.01,-0.95,2.08
11.657209873199463,1.25,-0.24,-0.75,1.47
11.659725904464722,0.48,-0.41,-0.25,0.67
11.66225004196167,-0.21,-0.36,0.11,0.43
11.663309097290039,-0.74,-0.09,0.29,0.79
11.666473865509033,-1.17,0.16,0.53,1.29
11.66889476776123,-1.46,0.42,0.74,1.68
11.744309902191162,-1.53,0.57,0.84,1.83
11.74574089050293,-1.46,0.49,0.92,1.79
11.746933937072754,-1.33,0.18,0.65,1.49
11.749918937683105,-1.1,-0.16,0.22,1.13
11.752341985702515,-0.74,-0.47,0.32,0.93
11.754777908325195,-0.5,-0.62,0.46,0.91
11.757306098937988,-0.45,-0.66,0.31,0.85
11.759818077087402,-0.54,-0.5,0.25,0.77
11.762309074401855,-0.77,-0.31,0.39,0.91
11.763389110565186,-0.98,-0.23,0.66,1.2
11.839179039001465,-1.09,-0.22,0.66,1.29
11.840675830841064,-1.03,-0.33,0.67,1.27
11.841814994812012,-1.02,-0.63,1.03,1.58
11.844505786895752,-1.5,-1.03,1.56,2.39
11.847007989883423,-2.47,-1.59,1.67,3.37
11.84809684753418,-3.4,-2.13,0.94,4.12
11.866840839385986,-3.89,-2.81,0.08,4.79
11.868082046508789,-3.74,-3.1,-0.39,4.87
11.87080192565918,-3.08,-2.17,-0.86,3.86
11.87334394454956,-2.48,-3.2,-0.55,4.08
11.949352979660034,-2.4,-5.36,0.69,5.91
11.95085096359253,-2.85,-7.55,-0.32,8.07
11.952025890350342,-2.91,-9.5,-2.2,10.17
11.954916000366211,-2.2,-12.48,-0.45,12.68
11.957454919815063,-1.24,-15.6,2.76,15.89
11.960002899169922,-0.62,-15.97,1.08,16.01
11.962480068206787,-1.18,-10.18,-0.92,10.28
11.963554859161377,-1.64,-2.11,0.82,2.79
11.966755867004395,-1.3,2.5,2.32,3.64
11.96927785873413,-1.81,4.56,5.02,7.01
12.045236110687256,-3.13,4.72,6.54,8.65
12.046726942062378,-5.13,4.67,4.88,8.48
12.047849893569946,-7.86,5.2,5.0,10.66
12.049561023712158,-9.8,5.36,6.1,12.72
12.0518798828125,-9.87,5.19,5.86,12.59
12.054434776306152,-8.69,4.76,5.99,11.57
12.056983947753906,-6.96,3.93,5.82,9.88
12.059547901153564,-5.31,3.68,5.23,8.31
12.062026023864746,-3.96,3.82,4.86,7.34
12.063073873519897,-2.75,3.8,4.61,6.57
12.138773918151855,-1.65,3.19,4.17,5.5
12.140261888504028,-0.54,1.98,3.68,4.21
12.14142394065857,0.36,1.52,2.41,2.87
12.14437484741211,0.87,1.01,-0.17,1.34
12.147103786468506,1.48,0.57,-1.81,2.4
12.148297786712646,2.6,0.49,-1.87,3.23
12.166845798492432,4.01,0.58,-1.94,4.49
12.168077945709229,4.7,1.27,-2.91,5.67
12.170716762542725,5.21,2.04,-4.08,6.92
12.17340087890625,5.47,2.94,-5.19,8.09
12.250184059143066,5.15,3.41,-5.43,8.22
12.251758098602295,4.2,3.22,-4.99,7.27
12.252895832061768,4.05,2.54,-4.61,6.64
12.255815029144287,4.89,1.7,-4.46,6.83
12.2583749294281,5.68,0.99,-4.49,7.3
12.260968923568726,5.85,0.34,-4.48,7.37
12.263771057128906,5.45,0.44,-4.31,6.96
12.264892101287842,4.9,1.01,-4.01,6.41
12.281891822814941,4.68,1.64,-3.38,6.0
12.283528804779053,4.6,2.12,-2.68,5.73
12.359839916229248,4.58,2.34,-2.53,5.73
12.361251831054688,4.4,2.31,-2.75,5.67
12.362427949905396,3.99,2.37,-2.71,5.37
12.363608837127686,3.62,2.21,-2.4,4.87
12.382598876953125,3.58,1.86,-1.94,4.47
12.384044885635376,3.57,2.09,-1.65,4.45
12.386705875396729,3.52,2.51,-1.53,4.58
12.38919997215271,3.46,2.92,-1.42,4.74
12.391836881637573,3.05,3.16,-1.32,4.58
12.394459962844849,2.34,3.15,-1.04,4.05
12.470918893814087,1.51,2.68,-0.6,3.13
12.472310066223145,0.99,1.84,-0.5,2.14
12.474422931671143,1.17,0.58,-0.56,1.42
12.476861953735352,1.75,-0.68,-0.44,1.92
12.479389905929565,2.09,-1.77,0.08,2.73
12.48046088218689,1.73,-1.96,0.54,2.66
12.482194900512695,1.08,-1.03,0.87,1.72
12.484606981277466,0.96,0.18,0.51,1.1
12.487056970596313,1.59,0.78,-2.99,3.47
12.489620923995972,2.17,1.14,-8.69,9.02
12.492272853851318,2.02,0.6,-11.24,11.43
12.568346977233887,1.85,-1.73,-13.83,14.06
12.570005893707275,0.51,-5.64,-9.03,10.65
12.571144104003906,-8.47,-13.8,14.42,21.68
12.584266901016235,-11.38,-15.98,12.24,23.12
12.585531949996948,-7.13,-12.34,-2.5,14.46
12.587977886199951,-5.59,-11.42,3.44,13.17
12.590528964996338,-2.36,-12.91,10.93,17.07
12.593087911605835,1.06,-10.77,7.67,13.26
12.595724105834961,2.9,-5.35,0.14,6.08
12.596879959106445,4.15,1.11,-3.15,5.32
12.673751831054688,5.48,5.97,-4.64,9.33
12.675349950790405,6.15,9.84,-4.33,12.38
12.676470756530762,4.32,11.96,-2.43,12.94
12.679357051849365,2.18,8.48,-3.08,9.28
12.680434942245483,0.56,4.02,-2.91,4.99
12.682520866394043,-0.17,-0.26,-1.08,1.12
12.685011863708496,-0.31,-4.48,-0.16,4.49
12.687593936920166,-0.1,-7.09,-0.71,7.12
12.69012188911438,0.57,-7.81,-0.99,7.89
12.692669868469238,1.4,-6.93,-0.09,7.07
12.76911211013794,1.08,-2.54,0.77,2.86
12.77069091796875,0.33,0.94,0.23,1.02
12.771835803985596,-0.69,2.98,-0.77,3.15
12.78347897529602,-1.41,3.79,-0.71,4.1
12.785024881362915,-1.08,3.27,-0.01,3.44
12.787661075592041,-0.27,2.19,0.48,2.25
12.790138959884644,0.37,0.93,0.83,1.3
12.792740821838379,0.89,-0.16,0.41,0.99
12.79518985748291,0.97,-0.47,-0.13,1.08
12.797676086425781,0.62,-0.4,0.1,0.74
12.873785018920898,0.24,-0.31,0.51,0.64
12.875302791595459,0.02,-0.24,0.56,0.6
12.876478910446167,-0.04,-0.3,1.01,1.05
12.879424095153809,-0.33,-0.3,0.89,0.99
12.880455017089844,-0.71,-0.06,0.8,1.07
12.882105827331543,-0.75,0.35,0.44,0.93
12.884774923324585,-0.46,0.51,0.53,0.86
12.887279033660889,-0.35,0.46,0.61,0.84
12.88982892036438,-0.62,0.23,0.74,0.99
12.892327785491943,-1.16,-0.22,0.96,1.52
12.969659805297852,-1.85,-0.3,-0.1,1.87
12.971200942993164,-1.77,0.16,-0.87,1.97
12.972326755523682,-0.78,0.24,-0.64,1.03
12.981990814208984,0.26,-0.2,0.44,0.54
12.983742952346802,0.48,-0.75,0.44,0.99
12.986015796661377,-0.26,-1.14,-0.31,1.2
12.988574981689453,-0.67,-0.87,-0.77,1.34
12.991134881973267,-0.72,-0.44,-0.71,1.1
12.993709087371826,-0.3,-0.17,0.1,0.35
12.996072769165039,0.0,-0.15,-0.09,0.17
13.074148893356323,0.3,-0.84,-1.3,1.57
13.075747966766357,0.14,-1.64,-1.56,2.26
13.076941967010498,-0.35,-2.04,-0.62,2.16
13.079833984375,-1.18,-2.34,-0.85,2.75
13.080914974212646,-1.59,-3.34,-2.01,4.2
13.084059953689575,-1.11,-5.69,-1.62,6.01
13.086505889892578,-1.01,-9.09,-1.75,9.31
13.089026927947998,-1.04,-11.38,-3.08,11.83
13.091577053070068,-0.96,-12.34,-3.45,12.84
13.09412693977356,-1.06,-13.14,-2.87,13.49
13.172605991363525,-1.37,-14.69,-2.61,14.98
13.173934936523438,-2.62,-16.17,-2.86,16.62
13.176013946533203,-4.51,-16.81,-2.25,17.54
13.178591966629028,-6.51,-16.1,0.09,17.36
13.180974006652832,-7.84,-12.9,4.77,15.83
13.182095050811768,-7.67,-8.56,7.85,13.91
13.201200008392334,-7.0,-3.58,4.99,9.31
13.20255708694458,-7.02,2.46,5.35,9.16
13.205245018005371,-8.59,8.96,14.58,19.14
13.207839965820312,-10.1,14.43,17.15,24.58
13.287054061889648,-11.64,12.81,5.67,18.21
13.288656949996948,-14.8,8.11,3.38,17.21
13.289772987365723,-18.2,3.55,8.9,20.56
13.292482852935791,-18.75,-0.29,12.17,22.35
13.295058965682983,-14.87,-1.43,8.01,16.95
13.297554969787598,-10.43,0.16,3.49,10.99
13.29863691329956,-7.2,0.32,2.43,7.6
13.317081928253174,-4.89,-1.47,4.12,6.56
13.318321943283081,-2.17,-2.39,3.36,4.65
13.320595979690552,-0.21,-1.88,0.5,1.95
13.323244094848633,1.14,-2.16,-1.27,2.75
13.404196977615356,2.08,-2.43,-0.51,3.23
13.405792951583862,2.93,-2.83,1.28,4.26
13.406857013702393,2.71,-3.39,1.28,4.52
13.409595966339111,2.58,-3.58,0.06,4.41
13.412138938903809,2.65,-3.27,-1.3,4.4
13.414525985717773,2.77,-2.84,-1.65,4.29
13.415660858154297,2.93,-2.54,-1.38,4.11
13.43332576751709,3.14,-2.64,-1.48,4.36
13.434595108032227,3.1,-2.81,-1.91,4.59
13.437163829803467,2.89,-3.52,-2.33,5.11
13.518199920654297,2.83,-4.03,-2.91,5.71
13.519783020019531,2.63,-4.49,-2.92,5.96
13.52088975906372,2.66,-4.67,-2.81,6.06
13.523745059967041,3.11,-4.76,-3.28,6.56
13.526228904724121,3.88,-4.86,-4.5,7.67
13.528755903244019,4.83,-4.75,-5.44,8.68
13.531274795532227,5.98,-4.29,-5.32,9.08
13.532376766204834,6.33,-3.92,-4.69,8.79
13.55047082901001,6.59,-3.89,-5.2,9.25
13.551843881607056,6.18,-3.08,-5.54,8.85
13.633416891098022,5.72,-1.7,-5.84,8.34
13.635036945343018,5.56,-0.71,-6.15,8.32
13.636168003082275,5.01,0.41,-6.3,8.05
13.639080047607422,4.69,1.19,-6.07,7.76
13.641623973846436,4.88,0.93,-4.86,6.94
13.644190788269043,4.8,0.83,-3.38,5.92
13.646631956100464,4.78,0.98,-3.58,6.05
13.647698879241943,4.45,1.57,-3.95,6.15
13.649622917175293,4.38,2.0,-3.89,6.19
13.652073860168457,3.96,2.35,-2.63,5.3
13.7329740524292,2.96,2.31,-0.45,3.78
13.734494924545288,2.28,1.83,-2.22,3.67
13.73557710647583,0.43,0.46,-1.18,1.33
13.73862886428833,-3.7,-6.77,8.44,11.43
13.740899085998535,-1.61,-5.74,-4.34,7.37
13.74339485168457,0.09,-2.23,-8.27,8.56
13.745814800262451,0.04,-5.23,-9.9,11.19
13.748244762420654,1.68,-9.77,-13.64,16.86
13.749387979507446,3.48,-15.56,-10.31,18.98
13.767283916473389,3.87,-17.59,0.17,18.01
13.847976922988892,4.2,-6.27,-3.51,8.32
13.849517822265625,3.18,2.2,-7.28,8.24
13.850663900375366,3.5,5.13,-5.56,8.33
13.853775978088379,4.3,7.1,-2.33,8.62
13.856306076049805,4.08,7.13,-1.38,8.32
13.858945846557617,4.14,3.72,-0.54,5.59
13.861490964889526,4.03,-0.86,-0.7,4.17
13.864497900009155,3.65,-3.0,-2.5,5.34
13.865602016448975,3.48,-3.17,-1.24,4.86
13.884016036987305,2.39,-2.67,0.28,3.59
13.965439796447754,1.04,-1.68,0.04,1.97
13.967040061950684,0.46,-0.46,-0.82,1.04
13.968206882476807,0.2,0.67,-0.73,1.01
13.971080780029297,0.71,0.89,0.32,1.18
13.973604917526245,1.53,0.56,0.47,1.69
13.97613000869751,1.45,0.32,-0.37,1.53
13.97875690460205,0.79,0.26,-1.13,1.4
13.98124885559082,0.0,0.04,-1.53,1.53
13.982343912124634,-0.62,-0.12,-0.99,1.17
14.000225067138672,-0.77,0.0,-0.35,0.84
14.082100868225098,-0.64,0.25,-0.59,0.9
14.083555936813354,-0.65,0.46,-1.25,1.48
14.084765911102295,-0.84,0.61,-1.42,1.75
14.08772897720337,-1.06,0.65,-0.8,1.47
14.090272903442383,-1.48,0.76,-0.22,1.67
14.092824935913086,-1.94,0.86,0.3,2.14
14.095403909683228,-2.09,0.94,0.61,2.37
14.097954988479614,-1.78,0.6,1.16,2.2
14.099033832550049,-1.03,-0.1,1.07,1.48
14.11709189414978,0.11,-0.95,0.74,1.2
14.20111894607544,1.2,-1.85,0.51,2.26
14.202780961990356,1.37,-2.24,0.19,2.63
14.203961849212646,0.9,-2.26,-0.3,2.45
14.20692491531372,-0.06,-1.87,-0.27,1.89
14.209466934204102,-1.17,-1.73,0.28,2.1
14.211999893188477,-2.09,-1.49,0.86,2.7
14.214746952056885,-2.85,-1.69,2.23,3.99
14.215877056121826,-3.31,-2.57,3.16,5.24
14.233020782470703,-3.66,-3.73,2.86,5.95
14.234539031982422,-4.16,-4.6,2.43,6.66
14.237070083618164,-4.58,-5.55,2.27,7.54
14.321017980575562,-4.9,-6.68,2.1,8.54
14.322591781616211,-4.72,-7.77,1.48,9.21
14.323732852935791,-4.59,-8.54,1.16,9.76
14.326673984527588,-4.68,-9.04,1.37,10.27
14.329025983810425,-5.01,-10.12,2.01,11.46
14.331588983535767,-5.77,-11.55,3.22,13.3
14.332695007324219,-6.95,-12.41,3.38,14.61
14.350618839263916,-7.82,-12.41,2.17,14.82
14.351768970489502,-8.16,-12.46,0.13,14.89
14.352938890457153,-8.67,-12.65,-1.46,15.4
14.437217950820923,-9.74,-12.77,-1.01,16.09
14.438781976699829,-10.55,-12.15,-0.1,16.09
14.43977975845337,-9.98,-9.94,-0.93,14.11
14.44146203994751,-8.51,-7.35,-1.36,11.32
14.444007873535156,-6.96,-4.81,0.48,8.47
14.446722030639648,-7.5,-2.03,4.94,9.2
14.44779896736145,-8.57,-0.74,5.48,10.19
14.449833869934082,-8.97,-0.25,1.74,9.14
14.452261924743652,-9.29,0.23,1.19,9.36
14.454780101776123,-10.06,0.83,4.3,10.97
14.539172887802124,-11.1,1.36,7.67,13.56
14.54072380065918,-11.64,2.26,8.27,14.45
14.541855812072754,-10.62,2.96,7.04,13.08
14.544802904129028,-8.06,2.86,5.59,10.21
14.547182083129883,-5.57,2.57,4.46,7.58
14.548264026641846,-4.42,2.4,4.28,6.6
14.550137042999268,-4.92,1.99,4.21,6.77
14.552319049835205,-6.04,1.39,3.81,7.27
14.55473804473877,-6.93,0.77,3.93,8.0
14.556976795196533,-7.32,0.26,3.4,8.07
14.643219947814941,-6.82,-0.36,2.47,7.26
14.644784927368164,-5.64,-1.09,1.37,5.9
14.645931959152222,-4.05,-1.98,1.22,4.67
14.648804903030396,-2.51,-2.7,1.24,3.88
14.649966955184937,-1.37,-3.15,-0.08,3.43
14.666693925857544,-1.33,-3.58,-3.12,4.93
14.668166875839233,-0.63,-4.35,-7.23,8.46
14.670852899551392,0.31,-4.41,-10.44,11.33
14.673357009887695,1.17,-4.18,-10.12,11.01
14.675889015197754,2.51,-3.9,-7.46,8.78
14.761642932891846,2.74,-4.05,-5.42,7.29
14.763309001922607,2.27,-3.96,-6.57,7.99
14.764411926269531,1.46,-3.44,-8.75,9.51
14.766946792602539,0.69,-2.99,-10.85,11.27
14.783576011657715,0.08,-2.48,-11.96,12.21
14.785058975219727,-0.35,-1.91,-11.48,11.64
14.787741899490356,0.04,-1.55,-10.77,10.88
14.790313959121704,0.6,-1.92,-11.64,11.81
14.792903900146484,2.11,-2.63,-12.62,13.06
14.795464038848877,3.73,-3.02,-13.21,14.05
14.882867813110352,5.43,-2.71,-14.06,15.31
14.884254932403564,7.03,-2.09,-14.77,16.49
14.886323928833008,7.66,-1.07,-14.81,16.7
14.8888258934021,7.84,0.17,-15.17,17.07
14.891319990158081,7.97,1.31,-15.16,17.17
14.89369010925293,8.37,2.57,-14.3,16.76
14.896249771118164,8.74,3.29,-13.8,16.66
14.898778915405273,9.23,3.15,-13.52,16.67
14.899940967559814,10.14,2.06,-13.16,16.74
14.918274879455566,11.19,0.68,-12.41,16.72
15.005218982696533,11.84,-0.91,-11.51,16.53
15.006864070892334,12.14,-3.6,-1.77,12.78
15.008079051971436,6.78,-6.45,9.44,13.29
15.010904788970947,2.43,-8.86,-0.29,9.19
15.013437986373901,1.11,-6.73,-6.89,9.69
15.015875816345215,-0.09,-5.05,-5.92,7.78
15.017016887664795,-0.77,-4.62,-2.97,5.54
15.034705877304077,0.14,-1.86,-2.35,3.0
15.036026000976562,2.79,1.21,-4.41,5.35
15.038433074951172,4.85,2.1,-5.91,7.92
15.126904010772705,5.52,1.76,-4.83,7.54
15.128458976745605,4.12,1.55,-1.33,4.59
15.12962794303894,1.48,1.51,-0.27,2.13
15.130881786346436,-0.74,1.44,-2.09,2.64
15.134360790252686,-1.87,0.6,-3.21,3.76
15.136230945587158,-1.94,-0.32,-2.03,2.82
15.138696908950806,-1.59,-1.12,0.24,1.95
15.141129970550537,-1.4,-1.71,1.11,2.47
15.143785953521729,-1.26,-1.64,0.14,2.07
15.14612102508545,-0.95,-0.97,-0.84,1.59
15.148725986480713,-0.18,-0.42,-0.54,0.7
15.236921787261963,0.64,0.0,-0.19,0.66
15.238585948944092,1.36,0.35,-0.18,1.41
15.239810943603516,1.81,0.38,-0.26,1.86
15.242697954177856,2.1,0.05,-0.63,2.19
15.24535608291626,2.32,-0.28,-0.84,2.48
15.248576879501343,2.55,-0.27,-0.71,2.66
15.249752044677734,2.77,-0.31,-0.51,2.83
15.268730878829956,1.99,0.12,-0.49,2.05
15.27015209197998,0.88,0.17,-0.29,0.94
15.272830963134766,-0.1,0.07,-0.73,0.74
15.362963914871216,-1.28,0.21,-0.53,1.4
15.364530086517334,-2.08,0.38,-0.07,2.11
15.365694999694824,-2.25,0.49,-0.06,2.3
15.367770910263062,-2.12,0.49,0.19,2.18
15.36998701095581,-1.65,0.22,0.43,1.71
15.372469902038574,-1.01,0.15,0.33,1.07
15.374951839447021,-0.39,-0.01,-0.12,0.4
15.377333879470825,0.47,-0.41,-0.03,0.62
15.379644870758057,1.32,-0.88,-0.06,1.58
15.382131099700928,1.76,-1.27,-0.78,2.3
15.469799041748047,1.66,-1.42,-1.11,2.45
15.471312046051025,0.93,-1.07,-1.04,1.75
15.472575902938843,-0.21,-0.72,-0.78,1.08
15.47536587715149,-1.25,-0.53,-0.42,1.42
15.477844953536987,-1.98,-0.61,-0.03,2.07
15.480400085449219,-2.51,-0.83,0.28,2.65
15.482826948165894,-2.9,-1.12,0.57,3.16
15.483978986740112,-2.96,-1.81,1.39,3.73
15.502182960510254,-2.91,-2.98,2.26,4.73
15.503570079803467,-2.92,-4.17,2.37,5.61
15.592439889907837,-2.85,-5.24,1.86,6.24
15.593989849090576,-2.96,-6.05,1.48,6.89
15.59512186050415,-3.67,-6.54,0.91,7.55
15.59798288345337,-4.23,-7.3,1.79,8.62
15.599082946777344,-4.52,-8.14,2.1,9.54
15.601033926010132,-5.12,-8.6,1.17,10.07
15.603407859802246,-5.85,-9.35,1.11,11.08
15.605830907821655,-7.35,-10.34,2.09,12.85
15.608255863189697,-9.23,-11.07,2.21,14.58
15.610704898834229,-9.91,-11.24,1.04,15.02
15.698776960372925,-9.02,-10.98,-1.25,14.26
15.70031189918518,-9.17,-10.7,0.41,14.09
15.701417922973633,-10.31,-9.37,3.23,14.3
15.704286098480225,-10.4,-7.31,0.92,12.74
15.706803798675537,-9.7,-5.84,-1.23,11.38
15.709317922592163,-8.68,-4.77,-2.44,10.2
15.71186876296997,-7.79,-2.81,-0.96,8.33
15.714386940002441,-7.11,-1.25,4.0,8.25
15.715435981750488,-7.5,-1.18,5.09,9.14
15.718451976776123,-9.28,-1.21,1.9,9.54
15.806910037994385,-10.47,-1.34,1.69,10.68
15.808518886566162,-11.78,-0.45,3.04,12.17
15.809618949890137,-13.13,1.35,6.53,14.72
15.812585830688477,-13.31,2.91,8.39,16.0
15.81537675857544,-11.72,3.85,6.64,14.0
15.816442012786865,-8.98,3.62,4.52,10.68
15.834511756896973,-6.27,2.34,3.89,7.74
15.835968017578125,-4.26,1.19,4.1,6.03
15.838774919509888,-3.47,0.82,4.01,5.36
15.841413974761963,-3.58,0.26,3.73,5.17
15.931304931640625,-4.34,-0.31,3.57,5.62
15.93288803100586,-4.93,-0.93,3.92,6.36
15.934004783630371,-4.7,-1.62,3.64,6.16
15.936891078948975,-3.52,-2.24,3.07,5.18
15.939361095428467,-2.02,-2.51,2.02,3.8
15.94190788269043,-1.14,-2.56,-0.21,2.81
15.944447040557861,-0.58,-2.78,-2.6,3.85
15.946995973587036,-0.45,-3.13,-4.8,5.74
15.9492769241333,-0.12,-3.33,-5.67,6.57
15.950366020202637,0.79,-3.57,-5.85,6.89
16.054998874664307,1.68,-4.07,-5.73,7.22
16.056368827819824,2.34,-4.61,-5.7,7.69
16.057459831237793,2.73,-4.67,-6.67,8.58
16.060322761535645,2.63,-4.29,-7.32,8.88
16.06285285949707,3.23,-4.04,-7.93,9.46
16.06554388999939,4.16,-3.75,-8.55,10.22
16.06666588783264,4.6,-3.51,-8.64,10.39
16.084202766418457,5.08,-3.31,-9.1,10.93
16.085755825042725,5.19,-3.3,-10.29,11.98
16.088318824768066,6.36,-3.14,-11.66,13.64
16.09100103378296,7.67,-2.85,-12.75,15.14
16.18116807937622,8.62,-2.37,-14.11,16.7
16.18271780014038,9.12,-1.76,-15.44,18.01
16.18384099006653,9.38,-0.61,-15.94,18.5
16.18667197227478,9.94,0.79,-15.24,18.21
16.18920397758484,10.56,2.46,-14.39,18.01
16.191768884658813,11.16,3.33,-14.05,18.24
16.194248914718628,11.91,2.98,-13.97,18.59
16.196693897247314,12.94,1.93,-13.16,18.55
16.19914197921753,13.93,0.4,-12.13,18.47
16.200242042541504,14.45,-1.36,-11.21,18.33
16.30594778060913,14.45,-4.06,0.57,15.02
16.307190895080566,8.55,-6.59,9.79,14.57
16.308313846588135,3.91,-8.74,0.44,9.58
16.311068058013916,0.39,-6.02,-2.94,6.71
16.31368088722229,-2.29,-2.66,-2.04,4.05
16.31620979309082,-3.05,-1.19,-3.57,4.84
16.31732702255249,-2.15,0.19,-6.21,6.57
16.334621906280518,-0.79,0.89,-6.91,7.01
16.33604907989502,1.76,1.14,-5.3,5.69
16.338808059692383,4.87,0.39,-1.73,5.18
16.428791999816895,5.89,-0.34,-0.48,5.91
16.430471897125244,4.54,0.12,-2.26,5.07
16.431593894958496,2.58,0.55,-1.83,3.21
16.43275499343872,0.68,0.17,-0.62,0.93
16.452277898788452,-0.53,-0.61,-0.92,1.22
16.453646898269653,-1.36,-0.92,-1.37,2.13
16.456244945526123,-2.01,-0.93,-1.14,2.49
16.458669900894165,-2.41,-1.08,-0.34,2.66
16.461126804351807,-2.04,-1.52,0.57,2.6
16.463669776916504,-1.04,-1.16,0.69,1.7
16.555774927139282,0.08,-0.21,0.02,0.22
16.557307958602905,1.3,0.27,-0.6,1.45
16.558427810668945,2.05,0.5,-0.78,2.24
16.56136989593506,2.35,0.64,-0.98,2.62
16.563974857330322,2.19,0.61,-0.98,2.47
16.567118883132935,1.92,0.3,-0.94,2.15
16.569159030914307,1.39,0.13,-1.01,1.72
16.585354804992676,0.85,0.07,-1.03,1.33
16.58664298057556,0.42,0.08,-1.02,1.1
16.589323043823242,-0.03,0.25,-0.94,0.97
16.67918586730957,-0.49,0.43,-0.76,1.0
16.680655002593994,-1.0,0.26,-0.38,1.1
16.6817569732666,-1.54,0.08,-0.01,1.54
16.682909965515137,-1.86,-0.13,0.1,1.86
16.70183801651001,-1.85,0.02,0.04,1.85
16.703200817108154,-1.47,-0.02,-0.08,1.47
16.70585584640503,-0.75,-0.16,-0.19,0.79
16.70841407775879,0.02,-0.39,-0.12,0.4
16.710946083068848,0.39,-0.5,-0.44,0.77
16.713489055633545,0.36,-0.71,-0.59,0.99
16.80404496192932,0.01,-0.74,-0.02,0.74
16.80537509918213,-0.49,-0.49,0.48,0.84
16.806519031524658,-1.08,-0.48,0.88,1.47
16.80936598777771,-1.92,-0.37,0.91,2.15
16.81191396713257,-2.78,-0.59,0.51,2.88
16.81446886062622,-3.53,-1.28,0.5,3.78
16.815535068511963,-3.2,-2.38,0.47,4.01
16.818202018737793,-2.27,-3.42,1.22,4.28
16.820791959762573,-1.74,-4.0,1.14,4.5
16.823319911956787,-1.79,-3.99,0.49,4.4
16.91400694847107,-1.8,-4.33,0.37,4.7
16.915568828582764,-1.88,-4.49,0.58,4.9
16.916700839996338,-2.3,-4.67,0.97,5.29
16.9196138381958,-2.83,-4.9,1.2,5.78
16.922168970108032,-3.61,-5.42,1.43,6.66
16.924729824066162,-4.45,-6.15,1.95,7.83
16.927239894866943,-5.35,-6.95,1.84,8.96
16.92975091934204,-6.19,-8.15,2.23,10.47
16.932585954666138,-7.24,-9.54,2.81,12.3
16.933714866638184,-8.17,-10.57,2.13,13.52
17.04104709625244,-8.97,-11.32,0.9,14.47
17.042372941970825,-9.2,-11.65,-0.56,14.85
17.04358196258545,-9.74,-11.75,-0.13,15.26
17.046361923217773,-10.36,-11.75,0.84,15.68
17.049307823181152,-9.66,-11.06,-0.79,14.7
17.051312923431396,-8.5,-10.41,-1.42,13.51
17.067659854888916,-7.25,-8.47,1.09,11.2
17.06928777694702,-7.82,-4.87,4.16,10.1
17.07178497314453,-8.91,-2.47,3.51,9.88
17.07423686981201,-8.95,-0.57,1.76,9.13
17.076697826385498,-9.61,1.11,4.32,10.59
17.1694917678833,-10.69,1.73,7.77,13.32
17.17105793952942,-11.53,1.74,7.59,13.91
17.17216682434082,-12.04,1.91,6.9,14.0
17.17512798309326,-11.88,2.27,7.12,14.03
17.177660942077637,-11.1,2.31,7.17,13.41
17.180190086364746,-9.26,2.13,6.26,11.37
17.18256902694702,-7.54,2.13,5.09,9.34
17.183573961257935,-6.45,2.14,4.22,7.99
17.202282905578613,-6.42,1.66,4.14,7.81
17.20362091064453,-6.93,0.93,4.04,8.07
17.296570777893066,-6.58,0.11,3.37,7.39
17.29812002182007,-5.92,-1.14,2.97,6.72
17.29927396774292,-4.83,-2.18,2.42,5.82
17.30075192451477,-3.44,-2.93,1.34,4.71
17.303136825561523,-1.94,-3.61,0.42,4.11
17.305663108825684,-0.92,-3.6,-0.21,3.72
17.308180809020996,0.21,-3.75,-1.73,4.13
17.310638904571533,0.11,-4.01,-4.91,6.34
17.3131160736084,0.49,-3.91,-6.97,8.0
17.315563917160034,1.08,-3.35,-6.64,7.51
17.408536911010742,2.17,-2.93,-5.46,6.56
17.410118103027344,3.55,-3.39,-5.05,7.04
17.411212921142578,3.74,-3.64,-6.26,8.15
17.414201974868774,3.35,-3.51,-7.02,8.53
17.41674494743347,2.83,-2.78,-7.64,8.6
17.417840003967285,1.46,-2.42,-7.25,7.78
17.43539595603943,1.27,-1.97,-7.72,8.06
17.436661958694458,1.72,-1.67,-8.87,9.18
17.439148902893066,2.87,-2.11,-10.35,10.94
17.44184684753418,4.18,-2.79,-12.04,13.04
17.53599190711975,5.67,-3.0,-13.46,14.91
17.537572860717773,6.97,-2.77,-13.96,15.84
17.538702964782715,8.78,-2.2,-13.05,15.88
17.541595935821533,11.02,-1.57,-11.57,16.05
17.54403591156006,12.58,-1.05,-11.49,17.06
17.54662799835205,13.04,-0.8,-13.69,18.92
17.55091381072998,13.53,-0.34,-15.21,20.35
17.552199840545654,13.63,0.55,-14.76,20.09
17.569161891937256,13.85,1.7,-13.24,19.23
17.570563793182373,14.65,2.03,-12.04,19.07
17.665388107299805,15.5,1.39,-10.65,18.85
17.666956901550293,15.32,1.05,-9.07,17.83
17.66807508468628,13.31,0.74,-6.63,14.88
17.671169757843018,8.94,-1.02,5.19,10.38
17.67373490333557,4.25,-7.27,10.89,13.76
17.676269054412842,3.66,-9.66,-3.71,10.97
17.678785800933838,1.24,-8.95,-5.79,10.73
17.68124294281006,-3.65,-11.04,-0.03,11.62
17.683640003204346,-2.59,-7.39,-2.89,8.34
17.68473482131958,1.64,0.4,-6.23,6.45
17.795434951782227,5.05,3.59,-5.65,8.38
17.796722888946533,7.49,4.49,-1.46,8.85
17.797918796539307,7.4,1.9,0.24,7.64
17.799844980239868,3.97,1.06,-1.8,4.48
17.81914186477661,0.05,1.68,-3.01,3.44
17.82038402557373,-2.37,0.4,-2.81,3.69
17.822968006134033,-2.92,-1.46,-1.95,3.8
17.82551908493042,-2.53,-2.92,-0.24,3.87
17.8281409740448,-1.9,-3.3,0.81,3.89
17.830776929855347,-1.48,-2.21,0.46,2.69
17.927403926849365,-1.16,-0.68,0.16,1.35
17.9287748336792,-0.57,0.09,0.32,0.65
17.93093490600586,0.08,0.34,-0.5,0.6
17.933562755584717,0.69,0.74,-1.14,1.52
17.934688091278076,1.22,0.71,-0.86,1.65
17.95246195793152,1.46,0.44,-0.69,1.67
17.95371389389038,1.3,0.06,-1.0,1.64
17.956314086914062,1.05,0.17,-1.12,1.54
17.958768844604492,0.93,0.01,-0.97,1.34
17.961318969726562,0.62,-0.04,-0.46,0.77
18.057841777801514,0.08,-0.38,-0.81,0.89
18.05940580368042,-0.75,0.08,-1.14,1.36
18.06053590774536,-1.35,0.06,-0.05,1.35
18.063479900360107,-1.52,-0.53,0.32,1.64
18.066548824310303,-2.08,-0.65,-0.16,2.18
18.067694902420044,-2.62,-0.26,-0.45,2.67
18.10133409500122,-2.27,-0.04,-0.28,2.28
18.103110790252686,-1.59,-0.19,-0.36,1.64
18.105793952941895,-1.24,-0.72,-0.42,1.49
18.108359813690186,-1.33,-1.54,-0.03,2.03
18.110986948013306,-1.41,-2.44,0.55,2.87
18.209413051605225,-1.56,-3.12,1.06,3.64
18.210966110229492,-1.71,-3.65,1.71,4.37
18.21207594871521,-1.77,-4.08,2.13,4.93
18.215057849884033,-1.99,-4.42,1.9,5.2
18.217570781707764,-2.65,-4.95,1.9,5.92
18.218599796295166,-3.26,-5.52,2.09,6.74
18.236464023590088,-3.7,-6.24,1.99,7.52
18.23772692680359,-4.37,-7.36,1.93,8.77
18.240211963653564,-5.24,-7.83,2.03,9.63
18.24275779724121,-6.26,-8.97,2.08,11.13
18.34085988998413,-7.25,-10.17,2.06,12.65
18.342569828033447,-7.66,-11.59,1.03,13.93
18.343748092651367,-7.49,-12.35,-1.65,14.53
18.346734046936035,-8.03,-12.99,-3.15,15.59
18.349186897277832,-9.59,-13.21,-1.98,16.44
18.350299835205078,-10.04,-11.97,-0.73,15.64
18.35253596305847,-8.71,-9.2,-1.28,12.73
18.35495090484619,-8.36,-5.85,-0.39,10.21
18.35748791694641,-9.08,-2.13,2.63,9.69
18.359932899475098,-10.32,1.2,6.79,12.41
18.457077026367188,-11.16,2.45,6.52,13.15
18.4585919380188,-11.92,2.52,4.68,13.05
18.45970106124878,-12.69,2.88,6.16,14.39
18.462646961212158,-13.26,3.24,8.67,16.17
18.465095043182373,-12.7,3.76,10.12,16.66
18.46755075454712,-10.09,3.64,8.55,13.71
18.468682765960693,-7.34,3.03,6.55,10.29
18.502288818359375,-5.11,2.57,5.28,7.78
18.50406289100647,-4.08,1.85,5.27,6.91
18.50662088394165,-4.15,1.17,6.17,7.52
18.605300903320312,-4.84,0.79,6.51,8.15
18.606822967529297,-5.24,0.02,6.56,8.39
18.607934951782227,-4.0,-1.87,7.38,8.6
18.61074209213257,-2.25,-2.65,6.45,7.32
18.6132869720459,-1.5,-2.33,3.43,4.4
18.615796089172363,-1.04,-2.77,-0.15,2.96
18.61688804626465,-0.47,-3.94,-2.95,4.94
18.61986494064331,0.49,-4.15,-2.68,4.96
18.622469902038574,1.61,-3.65,-1.29,4.19
18.625051021575928,2.62,-3.22,-1.9,4.56
18.72266387939453,3.08,-2.93,-3.82,5.71
18.724190950393677,3.35,-2.86,-5.21,6.82
18.725284099578857,2.83,-3.23,-5.61,7.06
18.728266954421997,1.95,-3.49,-6.1,7.29
18.73079204559326,1.59,-3.44,-6.45,7.48
18.73359203338623,1.82,-3.25,-6.71,7.67
18.73469090461731,2.05,-3.61,-7.07,8.19
18.753189086914062,2.32,-4.15,-7.57,8.93
18.75454807281494,2.73,-4.33,-8.36,9.8
18.757247924804688,2.89,-4.32,-8.53,9.98
18.85470676422119,3.72,-4.3,-9.02,10.66
18.856281757354736,4.8,-3.68,-10.31,11.95
18.857409954071045,5.41,-3.16,-12.03,13.56
18.859292030334473,5.89,-2.44,-13.86,15.25
18.861815929412842,6.55,-1.91,-15.3,16.75
18.86434292793274,7.36,-1.42,-16.17,17.82
18.866987943649292,7.86,-0.34,-16.1,17.91
18.8680899143219,8.07,1.02,-16.05,17.99
18.88720703125,7.99,2.39,-16.46,18.45
18.888672828674316,7.98,3.58,-16.13,18.34
18.986196994781494,8.07,4.34,-14.43,17.09
18.987674951553345,8.27,4.36,-12.71,15.77
18.98881196975708,8.52,3.39,-11.99,15.09
18.991579055786133,8.68,1.44,-8.64,12.33
18.9941508769989,6.63,-3.27,6.24,9.67
18.996585845947266,3.37,-9.81,14.52,17.84
18.999096870422363,4.14,-8.53,-5.49,10.95
19.000147819519043,1.45,-8.86,-7.14,11.47
19.002274990081787,-1.57,-9.22,-1.74,9.51
19.004678964614868,-0.65,-4.07,1.32,4.32
19.101490020751953,3.7,1.28,-1.71,4.27
19.10301399230957,5.42,1.9,-4.4,7.23
19.104131937026978,4.59,2.24,-5.33,7.38
19.107072830200195,2.01,2.91,-4.68,5.86
19.109612941741943,-0.84,3.02,-2.95,4.3
19.11220407485962,-2.14,1.17,-2.59,3.55
19.114722967147827,-1.85,-1.28,-2.21,3.15
19.117197036743164,-1.29,-2.89,-0.62,3.22
19.118279933929443,-1.19,-3.43,0.74,3.7
19.13736391067505,-1.02,-2.74,0.51,2.96
19.13875102996826,-0.44,-1.56,-0.35,1.65
19.23703694343567,0.46,-0.71,-0.73,1.11
19.23860192298889,1.03,-0.38,-0.3,1.13
19.239730834960938,1.27,0.02,-0.18,1.28
19.242650985717773,0.98,0.5,-0.79,1.35
19.245182991027832,0.62,0.85,-1.43,1.77
19.247686862945557,0.5,0.88,-1.36,1.69
19.25049877166748,0.82,0.56,-1.01,1.41
19.251596927642822,0.79,0.3,-0.93,1.25
19.2704439163208,0.63,0.01,-0.67,0.91
19.271812915802002,0.46,-0.05,0.09,0.47
19.369597911834717,0.53,-0.16,-0.09,0.56
19.371037006378174,0.25,0.27,-0.64,0.73
19.372179985046387,-0.21,0.48,-0.77,0.93
19.375144004821777,-0.72,0.6,-0.64,1.13
19.377362966537476,-1.08,0.5,-0.22,1.21
19.37971782684326,-1.38,0.7,-0.23,1.56
19.382236003875732,-1.5,0.48,-0.33,1.6
19.384646892547607,-1.53,0.23,-0.23,1.56
19.38578510284424,-1.08,0.39,-0.13,1.15
19.418863773345947,-0.51,0.34,-0.12,0.62
19.515504837036133,-0.24,0.4,-0.01,0.46
19.51715588569641,0.03,0.09,-0.39,0.4
19.518231868743896,0.1,-0.23,-0.39,0.46
19.5210919380188,0.14,-0.71,-0.25,0.76
19.523574829101562,0.26,-1.38,-0.35,1.44
19.526095867156982,0.03,-1.48,-0.32,1.51
19.528625011444092,-0.4,-1.27,-0.11,1.33
19.531149864196777,-1.0,-1.12,-0.22,1.51
19.53503704071045,-1.53,-0.98,-0.27,1.83
19.536530017852783,-1.69,-1.07,0.34,2.02
19.645838975906372,-1.79,-1.37,0.76,2.37
19.647157907485962,-2.09,-1.73,1.27,2.99
19.64835786819458,-2.3,-2.31,1.95,3.79
19.651323795318604,-2.21,-3.0,2.54,4.5
19.652472972869873,-2.15,-3.62,2.58,4.93
19.66895890235901,-2.73,-4.21,2.29,5.51
19.670552968978882,-3.25,-4.76,1.52,5.96
19.673125982284546,-3.69,-5.26,0.79,6.47
19.675627946853638,-4.6,-5.9,0.51,7.49
19.678156852722168,-5.33,-6.8,0.38,8.64
19.773656845092773,-6.53,-8.51,1.17,10.79
19.775224924087524,-8.0,-9.99,1.8,12.92
19.776318073272705,-9.35,-11.3,2.49,14.87
19.779283046722412,-10.03,-12.27,3.05,16.13
19.781839847564697,-9.44,-11.33,0.48,14.75
19.784307956695557,-8.28,-8.86,-2.06,12.3
19.78541588783264,-7.88,-6.86,0.16,10.44
19.803569793701172,-7.72,-5.89,1.98,9.91
19.804982900619507,-7.74,-6.01,-0.49,9.81
19.80771493911743,-7.81,-5.52,-2.99,10.02
19.903738021850586,-8.34,-3.92,-1.95,9.41
19.90529775619507,-9.96,-1.9,3.26,10.65
19.906414031982422,-11.09,-1.3,4.28,11.95
19.909334897994995,-11.12,-1.59,1.64,11.35
19.91187596321106,-12.08,-1.16,3.15,12.53
19.914419889450073,-13.07,-0.43,4.74,13.9
19.917494773864746,-13.09,0.55,5.23,14.1
19.91856098175049,-12.54,2.15,5.6,13.9
19.936501026153564,-11.1,3.65,5.03,12.72
19.938106060028076,-9.18,4.23,2.8,10.48
20.034526824951172,-7.9,4.15,0.93,8.97
20.036094903945923,-7.32,3.67,0.7,8.21
20.037219047546387,-6.88,2.81,1.9,7.67
20.04014778137207,-6.36,1.6,3.12,7.26
20.042658805847168,-6.27,0.5,3.13,7.02
20.045145988464355,-6.43,-0.04,1.82,6.68
20.047664880752563,-6.03,-0.78,0.27,6.08
20.050089836120605,-5.37,-1.57,-0.89,5.66
20.05113697052002,-4.87,-2.07,-2.09,5.68
20.054187774658203,-4.59,-2.46,-3.34,6.18
20.14899778366089,-4.57,-2.46,-4.99,7.19
20.15041995048523,-4.3,-2.62,-5.97,7.8
20.151542901992798,-4.09,-2.69,-7.22,8.72
20.154277801513672,-4.02,-2.95,-8.62,9.95
20.156736850738525,-3.58,-3.32,-10.13,11.24
20.15926194190979,-3.18,-3.55,-11.97,12.88
20.161781787872314,-2.93,-3.36,-13.1,13.83
20.164318084716797,-2.71,-2.74,-13.51,14.04
20.166821002960205,-2.84,-2.04,-13.29,13.74
20.167908906936646,-2.86,-1.36,-12.79,13.17
20.170893907546997,-2.86,-0.92,-12.25,12.61
20.265541076660156,-2.77,-0.79,-11.36,11.71
20.267051935195923,-1.88,-1.06,-9.84,10.07
20.268208980560303,-0.16,-1.42,-8.03,8.15
20.271102905273438,1.26,-1.81,-6.45,6.81
20.273622035980225,2.39,-1.57,-5.2,5.93
20.276036977767944,3.42,-1.55,-4.33,5.73
20.278553009033203,4.34,-1.4,-4.02,6.07
20.281076908111572,4.74,-1.31,-3.93,6.29
20.283596992492676,4.89,-1.06,-3.55,6.13
20.284615993499756,4.99,-1.06,-3.04,5.93
20.378760814666748,5.13,-1.41,-2.48,5.86
20.38030695915222,5.23,-2.06,-2.18,6.02
20.38150978088379,5.07,-2.16,-2.08,5.89
20.38454008102417,4.84,-1.78,-1.76,5.44
20.385618925094604,4.82,-1.37,-1.75,5.3
20.404715061187744,4.93,-1.07,-2.58,5.66
20.405967950820923,5.14,-0.62,-3.86,6.45
20.408479928970337,5.47,-0.08,-4.71,7.21
20.41111993789673,5.79,0.38,-5.69,8.12
20.413672924041748,6.12,0.93,-6.78,9.18
20.509231090545654,6.42,1.42,-7.41,9.9
20.51083493232727,6.47,1.76,-7.5,10.06
20.51197910308838,6.22,1.75,-7.38,9.8
20.514906883239746,6.13,1.41,-7.7,9.94
20.51755380630493,5.5,0.56,-7.23,9.1
20.519577980041504,4.92,-0.29,-6.02,7.78
20.55339789390564,5.49,-0.32,-7.51,9.3
20.555216789245605,5.18,0.03,-8.55,9.99
20.557851791381836,4.47,-0.27,-7.71,8.91
20.56041383743286,1.37,-2.1,-2.51,3.54
20.656778812408447,-3.45,-4.93,-0.57,6.04
20.658291816711426,-4.29,-6.85,-4.44,9.22
20.6594557762146,-3.02,-9.57,-0.57,10.05
20.662335872650146,1.27,-13.25,2.46,13.53
20.66473698616028,4.18,-13.27,-1.35,13.97
20.66709280014038,4.58,-6.92,-0.47,8.31
20.66815996170044,4.06,0.17,0.11,4.06
20.67019510269165,3.6,3.31,-4.08,6.36
20.672574043273926,2.74,4.18,-7.99,9.42
20.675090789794922,2.03,4.79,-8.76,10.18
20.76933789253235,1.61,5.1,-7.61,9.3
20.77086591720581,1.02,4.15,-6.11,7.45
20.771981954574585,1.32,0.33,-2.4,2.75
20.77488899230957,2.83,-5.77,2.29,6.82
20.777370929718018,3.89,-7.01,0.37,8.02
20.779934883117676,2.95,-2.91,-1.77,4.5
20.78252601623535,0.68,0.59,-1.64,1.87
20.7849760055542,-0.5,1.56,-2.12,2.67
20.78605604171753,-0.65,1.23,-0.5,1.47
20.805612087249756,-0.28,0.68,1.21,1.41
20.90007781982422,-0.06,0.26,0.85,0.89
20.90164279937744,-0.04,0.02,-0.08,0.09
20.902763843536377,-0.12,-0.34,0.01,0.36
20.904454946517944,0.01,-0.47,0.66,0.81
20.906798839569092,0.43,-0.41,0.78,0.98
20.909323930740356,0.48,0.03,0.2,0.52
20.911784887313843,0.1,0.23,-0.31,0.39
20.9143967628479,-0.3,0.32,-0.9,1.0
20.9166738986969,-0.55,0.02,-0.89,1.04
20.91774082183838,-0.55,-0.25,-0.43,0.74
21.012269973754883,-0.5,-0.24,-0.07,0.55
21.0138258934021,-0.66,0.07,0.01,0.66
21.014925956726074,-0.89,0.61,-0.14,1.08
21.01813507080078,-0.98,0.92,-0.09,1.34
21.019264936447144,-0.88,0.83,0.13,1.21
21.037363052368164,-0.77,0.42,0.31,0.93
21.038692951202393,-0.68,0.07,0.26,0.73
21.04134702682495,-0.65,-0.13,-0.19,0.68
21.04390287399292,-0.8,-0.01,-0.43,0.9
21.046578884124756,-0.48,0.03,0.29,0.56
21.141016960144043,-0.08,-0.17,0.95,0.96
21.1426420211792,-0.56,-0.29,1.29,1.43
21.143753051757812,-0.87,-0.22,1.25,1.53
21.155255794525146,-0.7,0.11,0.77,1.04
21.156561851501465,-0.44,0.51,0.23,0.71
21.1593759059906,-0.23,0.62,-0.1,0.66
21.161941051483154,-0.24,0.42,-0.05,0.48
21.164488792419434,-0.3,0.01,0.45,0.54
21.166785955429077,-0.47,-0.7,0.8,1.16
21.167913913726807,-0.52,-1.06,0.89,1.47
21.1700119972229,-0.3,-0.83,0.63,1.08
21.263041973114014,-0.59,-0.33,0.34,0.75
21.264610767364502,-1.5,-0.24,0.53,1.6
21.265734910964966,-2.08,-0.74,0.86,2.36
21.268346786499023,-2.03,-0.51,0.53,2.15
21.269519805908203,-1.66,0.22,-0.04,1.67
21.288084030151367,-1.16,0.99,-0.24,1.54
21.28937292098999,-1.06,2.22,0.18,2.46
21.291985988616943,-0.8,2.96,0.82,3.17
21.294534921646118,-0.39,2.5,0.93,2.69
21.297202110290527,-0.16,0.53,0.63,0.83
21.390382766723633,-0.33,-1.47,-0.23,1.52
21.39199209213257,-0.11,-2.65,-0.79,2.76
21.39310598373413,0.1,-2.62,-0.7,2.71
21.405921936035156,-0.21,-1.76,-0.87,1.97
21.407161951065063,-0.5,-0.83,-0.98,1.37
21.40976595878601,-0.06,0.02,-1.22,1.22
21.412446975708008,-0.14,0.75,-0.93,1.2
21.414920806884766,-0.8,0.87,0.1,1.18
21.417468070983887,-0.57,0.29,0.73,0.97
21.418570041656494,0.13,-0.58,0.25,0.64
21.511125087738037,0.12,-1.41,-0.41,1.47
21.512706756591797,-0.12,-2.02,-0.78,2.16
21.513832092285156,-0.27,-2.56,-1.15,2.81
21.516729831695557,-0.34,-4.51,-1.62,4.8
21.51780390739441,-0.15,-7.74,-2.36,8.09
21.520227909088135,-0.34,-10.78,-3.31,11.28
21.522689819335938,-1.63,-13.0,-3.77,13.63
21.525228023529053,-3.15,-13.37,-3.89,14.27
21.52776002883911,-6.49,-13.99,-3.47,15.8
21.530154943466187,-10.19,-15.07,-2.29,18.33
21.622488975524902,-8.93,-17.87,-4.35,20.44
21.624094009399414,-9.19,-20.18,-4.32,22.59
21.62520980834961,-9.16,-18.45,-3.29,20.85
21.63738989830017,-6.51,-10.37,0.1,12.24
21.63893985748291,-3.49,-5.49,2.74,7.05
21.641547918319702,-1.78,-1.95,5.11,5.75
21.6441068649292,-2.34,2.41,5.28,6.25
21.64664888381958,-3.63,6.18,3.71,8.07
21.64920687675476,-5.19,10.37,5.91,13.01
21.651654958724976,-8.35,16.18,14.17,23.07
21.74411392211914,-13.96,13.11,15.56,24.67
21.745720863342285,-16.79,5.43,10.14,20.35
21.746931076049805,-17.22,3.31,7.96,19.25
21.749774932861328,-16.65,3.52,10.28,19.88
21.75230097770691,-12.42,2.93,13.19,18.35
21.753503799438477,-9.12,2.35,11.7,15.01
21.772315979003906,-8.08,2.34,7.76,11.44
21.773544788360596,-7.39,2.26,4.6,8.99
21.77617597579956,-6.7,1.27,4.98,8.44
21.77888584136963,-5.71,-0.49,6.42,8.6
21.872236967086792,-4.7,-1.74,4.29,6.59
21.87379789352417,-3.65,-1.85,0.85,4.17
21.87491798400879,-2.21,-0.7,-2.81,3.64
21.87784695625305,-1.03,0.73,-5.37,5.51
21.880396842956543,0.64,0.47,-6.96,7.0
21.882955074310303,3.13,-0.66,-6.08,6.87
21.88548493385315,5.54,-1.45,-4.5,7.28
21.886582851409912,7.53,-2.1,-3.09,8.4
21.90509605407715,8.71,-2.16,-2.98,9.45
21.906476974487305,8.34,-1.59,-4.63,9.67
21.999995946884155,7.33,-0.94,-7.31,10.39
22.001609802246094,7.39,-0.84,-10.96,13.24
22.002728939056396,7.77,-0.98,-14.29,16.29
22.0056369304657,8.99,-1.74,-13.45,16.27
22.0082049369812,10.51,-2.59,-9.02,14.09
22.010715007781982,10.14,-2.55,-6.95,12.55
22.01314401626587,8.5,-0.46,-8.07,11.72
22.01567506790161,7.5,0.84,-9.58,12.19
22.018444061279297,6.4,1.18,-9.87,11.82
22.019553899765015,5.17,1.27,-8.79,10.27
22.127830028533936,4.51,0.89,-7.54,8.83
22.129182815551758,4.47,0.03,-7.29,8.55
22.13041400909424,5.29,-0.97,-6.79,8.66
22.133330821990967,6.56,-1.14,-3.41,7.48
22.135798931121826,6.51,-0.05,0.95,6.57
22.136897087097168,5.51,-0.47,-0.63,5.56
22.155116081237793,4.45,-0.34,-4.77,6.53
22.15631103515625,3.47,0.35,-4.37,5.59
22.157442092895508,1.98,0.29,-0.11,2.0
22.16026496887207,1.35,-0.67,3.39,3.7
22.162914991378784,1.52,-1.71,2.29,3.23
22.25579595565796,1.78,-2.45,0.87,3.15
22.257364988327026,2.58,-0.57,-4.58,5.28
22.258450984954834,2.58,1.33,-7.27,7.82
22.272454977035522,2.72,0.22,-7.38,7.86
22.273732900619507,3.27,-3.05,-8.46,9.56
22.2761869430542,2.11,-7.46,-5.0,9.22
22.278589963912964,-5.9,-15.75,20.15,26.24
22.28091597557068,-11.98,-14.84,7.65,20.54
22.2831928730011,-13.56,-11.99,-4.28,18.59
22.285664081573486,-9.07,-17.72,1.78,19.98
22.377963066101074,2.62,-16.64,0.34,16.84
22.37954807281494,1.36,-8.71,-0.24,8.81
22.380725860595703,-1.25,-1.99,1.32,2.69
22.38362979888916,-0.89,2.17,1.33,2.69
22.385831832885742,-0.04,4.76,-0.57,4.79
22.388293981552124,0.32,6.25,-1.88,6.53
22.405426025390625,-0.08,7.48,-1.21,7.57
22.406664848327637,-0.95,7.55,-0.55,7.62
22.409574031829834,-1.96,5.34,-0.12,5.68
22.41224694252014,-0.89,-1.5,1.35,2.2
22.50565791130066,2.39,-7.82,2.27,8.48
22.507115840911865,3.76,-5.98,-1.19,7.16
22.50823187828064,4.2,-3.87,-5.26,7.76
22.511209964752197,2.73,-2.86,-3.11,5.03
22.51375699043274,0.56,-0.31,0.14,0.65
22.516300916671753,-0.58,1.95,1.24,2.38
22.518742084503174,-1.72,2.76,1.59,3.61
22.51981782913208,-2.39,2.38,1.13,3.55
22.538464069366455,-1.86,1.22,-0.32,2.24
22.539808988571167,-1.13,0.09,-0.62,1.29
22.633084774017334,-0.9,-0.21,-0.09,0.92
22.63463592529297,-0.62,-0.28,0.05,0.68
22.635796070098877,-0.38,-0.31,0.11,0.5
22.638815879821777,-0.02,-0.13,0.36,0.38
22.641121864318848,0.53,0.29,0.56,0.82
22.643651008605957,0.76,1.01,0.21,1.28
22.64616894721985,0.62,1.5,0.6,1.73
22.64872097969055,-0.39,1.16,1.73,2.11
22.65110206604004,-1.81,-0.13,2.52,3.1
22.65218687057495,-1.85,-1.06,1.88,2.84
22.743857860565186,-1.18,-1.23,0.73,1.85
22.745455980300903,-0.82,-1.48,-0.51,1.76
22.746562004089355,-0.48,-1.93,-1.17,2.3
22.749485969543457,-0.44,-2.28,-1.08,2.56
22.75216293334961,-0.54,-2.23,-0.51,2.35
22.75418186187744,-1.26,-0.59,-0.13,1.39
22.7723069190979,-1.24,1.06,0.37,1.67
22.773694038391113,-1.23,2.56,0.59,2.9
22.776436805725098,-1.55,3.33,1.23,3.87
22.77881693840027,-1.88,3.18,1.88,4.14
22.87070083618164,-2.05,2.11,1.83,3.46
22.872283935546875,-1.95,0.71,0.9,2.26
22.87338399887085,-1.2,-0.17,-0.29,1.24
22.876384973526,0.14,-0.85,-1.29,1.55
22.87894582748413,1.92,-2.36,-1.82,3.54
22.88148593902588,3.24,-4.63,-1.74,5.91
22.88408088684082,1.55,-5.83,-0.87,6.09
22.885157108306885,-0.69,-3.47,-0.3,3.55
22.88734793663025,-1.44,-1.88,-0.92,2.54
22.88963794708252,-1.99,-3.38,-1.21,4.1
22.98066282272339,-1.91,-6.22,-0.89,6.56
22.982218980789185,-1.91,-8.7,-0.87,8.94
22.98334288597107,-2.22,-10.93,-1.35,11.23
22.986119985580444,-4.02,-13.94,-1.54,14.58
22.987278938293457,-7.58,-15.8,-0.18,17.52
23.004633903503418,-10.01,-15.96,0.54,18.84
23.006216049194336,-9.69,-18.09,0.42,20.52
23.00856590270996,-8.99,-17.97,0.11,20.09
23.01089096069336,-8.28,-12.93,-1.64,15.44
23.0135498046875,-5.69,-3.13,3.09,7.19
23.10533380508423,-3.4,5.44,24.7,25.51
23.106903076171875,-5.44,9.2,33.77,35.42
23.108009815216064,-7.89,9.82,12.32,17.62
23.122745037078857,-9.1,10.75,7.9,16.14
23.123985767364502,-11.86,8.79,7.97,16.77
23.126585960388184,-14.4,7.12,8.63,18.23
23.12915277481079,-13.76,5.11,9.86,17.68
23.131696939468384,-8.47,2.19,7.91,11.79
23.134172916412354,-4.07,0.49,5.45,6.81
23.136568069458008,-1.97,0.58,3.1,3.71
23.137929916381836,-0.2,0.65,1.74,1.86
23.244739055633545,0.43,0.16,0.91,1.01
23.24613380432129,-0.15,-0.24,0.23,0.36
23.247363090515137,-0.37,-0.28,0.08,0.47
23.250303983688354,-0.61,0.02,-1.07,1.23
23.252660989761353,-1.26,0.56,-4.48,4.68
23.25385284423828,-1.3,0.8,-6.44,6.61
23.274508953094482,-0.57,1.14,-8.84,8.93
23.27592396736145,0.97,1.06,-10.66,10.75
23.27869176864624,2.83,0.22,-10.81,11.17
23.281051874160767,4.98,-1.25,-9.79,11.05
23.373701095581055,7.17,-2.99,-9.77,12.48
23.375135898590088,9.64,-4.39,-7.78,13.14
23.376286029815674,12.4,-6.07,2.04,13.95
23.3900728225708,10.11,-5.01,-2.19,11.49
23.391354084014893,7.26,-2.02,-11.61,13.84
23.392541885375977,7.05,0.05,-11.64,13.6
23.394932985305786,7.67,1.6,-11.12,13.6
23.396912097930908,7.48,3.05,-9.31,12.32
23.399022102355957,6.51,3.92,-7.41,10.61
23.401150941848755,5.52,4.24,-6.94,9.82
23.492633819580078,4.63,4.47,-5.4,8.4
23.494121074676514,3.58,2.52,0.34,4.39
23.495311975479126,2.77,0.18,4.0,4.86
23.497904777526855,2.68,-0.18,-4.59,5.31
23.500070095062256,3.38,-0.16,-6.24,7.09
23.502412796020508,4.29,-0.6,-3.92,5.84
23.503557920455933,3.55,-0.46,-2.82,4.55
23.523991107940674,2.33,0.56,-3.54,4.27
23.525352001190186,1.3,0.88,-3.16,3.52
23.527688026428223,0.41,0.45,-2.14,2.22
23.621367931365967,-0.01,-0.56,-1.57,1.66
23.62290906906128,0.08,-1.15,-1.9,2.22
23.624039888381958,1.18,0.02,-3.05,3.27
23.626774787902832,3.94,0.82,-5.46,6.78
23.62890386581421,5.02,0.32,-6.55,8.25
23.63101577758789,5.12,-0.96,-9.48,10.81
23.63314390182495,5.4,-4.21,-9.44,11.66
23.63574981689453,3.69,-9.04,3.25,10.29
23.636921882629395,-4.01,-13.07,13.62,19.29
23.65672779083252,-8.16,-11.26,-2.56,14.13
23.74972891807556,-15.42,-10.11,-1.85,18.53
23.751189947128296,-15.46,-10.54,0.41,18.71
23.75244688987732,-4.67,-12.38,-3.59,13.7
23.75368595123291,0.35,-11.47,-3.38,11.96
23.7727370262146,-1.62,-7.59,-1.37,7.88
23.774041891098022,-1.87,-0.79,2.98,3.6
23.775238037109375,-0.37,3.88,3.48,5.22
23.777487754821777,0.97,5.67,0.48,5.77
23.779597759246826,1.56,6.89,-0.66,7.09
23.781799793243408,1.69,7.63,0.23,7.81
23.875374794006348,0.6,7.15,1.59,7.34
23.876815795898438,-1.59,2.36,3.36,4.4
23.87795877456665,-1.65,-3.63,2.87,4.91
23.888413906097412,0.81,-4.07,-0.16,4.15
23.88989782333374,2.84,-4.04,-5.93,7.71
23.892162799835205,3.64,-4.89,-7.5,9.66
23.894202947616577,1.06,-3.24,-2.21,4.06
23.896321773529053,-1.08,-0.8,0.42,1.4
23.898494958877563,-1.01,1.71,0.71,2.1
23.90073299407959,-1.2,2.87,1.84,3.61
23.99300193786621,-1.26,2.14,1.66,2.98
23.994311809539795,-0.5,0.18,0.01,0.53
23.996445894241333,0.14,-0.84,0.0,0.85
23.998900890350342,-0.01,-0.7,-0.28,0.75
24.001433849334717,-0.07,-0.1,-0.18,0.21
24.002541065216064,-0.26,-0.19,0.58,0.66
24.004802942276,-0.96,-0.54,0.81,1.36
24.0072340965271,-0.89,-0.69,0.81,1.38
24.00949001312256,-1.16,-0.57,0.72,1.47
24.011971950531006,-1.17,-0.18,0.58,1.31
24.10399580001831,-1.08,-0.02,0.71,1.29
24.10552191734314,-1.04,-0.07,0.87,1.35
24.106576919555664,-0.7,-0.26,0.82,1.1
24.10942506790161,-0.57,-0.4,0.52,0.86
24.11162805557251,-0.39,-0.53,0.11,0.66
24.11403489112854,-0.42,-0.54,0.03,0.68
24.116350889205933,-0.7,-0.33,0.44,0.89
24.118839979171753,-0.95,-0.69,0.76,1.39
24.119951963424683,-0.87,-0.48,0.28,1.03
24.122946977615356,-0.26,0.0,-0.08,0.27
24.125353813171387,-0.03,0.28,-0.02,0.28
24.21743392944336,-0.16,0.08,0.3,0.34
24.21896982192993,-0.27,-0.35,0.3,0.53
24.22007703781128,-0.82,-0.62,0.04,1.02
24.223055839538574,-0.96,-0.87,-0.22,1.31
24.225351810455322,-0.78,-1.08,-0.34,1.37
24.227735996246338,-0.74,-1.59,-0.06,1.75
24.230184078216553,-0.62,-2.28,-0.17,2.36
24.232585906982422,-0.29,-3.42,-0.63,3.48
24.235063076019287,-0.83,-4.89,-1.1,5.08
24.236151933670044,-1.6,-5.83,-1.46,6.21
24.328264951705933,-1.68,-6.63,-1.64,7.03
24.32976198196411,-1.8,-7.99,-1.57,8.33
24.330859899520874,-2.68,-9.47,-1.04,9.89
24.333706855773926,-3.45,-9.98,-0.66,10.58
24.336641788482666,-4.13,-10.09,-0.48,10.91
24.33781099319458,-5.78,-10.92,-0.47,12.36
24.356164932250977,-7.49,-12.27,-0.31,14.37
24.357407093048096,-8.37,-12.57,-0.18,15.1
24.359859943389893,-8.36,-11.12,0.02,13.91
24.362342834472656,-6.71,-8.64,1.77,11.08
24.456008911132812,-3.99,-4.86,4.11,7.51
24.45748805999756,-3.03,-0.96,6.54,7.27
24.45862579345703,-4.61,2.44,12.62,13.65
24.46148681640625,-8.61,5.15,22.02,24.19
24.46394681930542,-9.29,7.41,15.41,19.45
24.466306924819946,-8.33,9.93,6.74,14.6
24.468738079071045,-8.42,8.18,4.38,12.52
24.46981692314148,-8.78,7.16,4.18,12.07
24.47296905517578,-9.73,7.43,4.97,13.21
24.47537398338318,-12.68,8.03,8.21,17.1
24.568871021270752,-14.71,5.65,9.18,18.23
24.570334911346436,-12.05,1.92,5.92,13.56
24.571409940719604,-8.04,0.1,3.28,8.68
24.574477910995483,-5.01,-0.27,1.42,5.21
24.57702898979187,-3.4,-0.67,0.23,3.47
24.579550981521606,-2.43,-1.08,0.14,2.66
24.58206081390381,-1.07,-1.17,-0.3,1.61
24.58451509475708,-0.01,-1.48,-1.55,2.14
24.5870680809021,1.09,-1.77,-3.27,3.87
24.5881769657135,2.85,-2.53,-3.5,5.17
24.69747304916382,4.56,-3.21,-3.54,6.6
24.69889187812805,6.49,-4.14,-3.48,8.44
24.700084924697876,7.96,-5.07,-4.54,10.47
24.70340895652771,8.73,-5.52,-6.55,12.23
24.704554080963135,8.86,-5.64,-8.88,13.75
24.722234964370728,9.34,-4.93,-10.32,14.76
24.72348976135254,10.0,-3.73,-10.76,15.15
24.72609806060791,10.51,-2.97,-10.18,14.93
24.728631019592285,10.99,-2.37,-8.78,14.26
24.73127794265747,11.12,-1.65,-7.62,13.58
24.82516384124756,10.23,-0.96,-7.88,12.94
24.826683044433594,8.59,0.26,-7.96,11.71
24.82779598236084,7.34,1.13,-7.18,10.32
24.83911395072937,5.9,1.28,-5.5,8.16
24.840343952178955,4.82,1.48,-4.76,6.93
24.842962980270386,4.15,0.94,-4.23,5.99
24.84550380706787,3.99,-0.19,-3.13,5.07
24.848061084747314,4.69,-0.9,-2.97,5.62
24.850605964660645,3.74,-0.8,-1.91,4.27
24.853322982788086,2.53,0.12,-0.6,2.6
24.946187019348145,2.23,0.41,-0.79,2.4
24.947752952575684,2.16,0.13,-1.46,2.61
24.948925971984863,2.32,0.0,-2.36,3.3
24.95192289352417,2.05,0.05,-1.94,2.82
24.953017950057983,1.61,0.05,-0.14,1.61
24.954622983932495,3.08,0.21,-2.07,3.71
24.957042932510376,4.25,0.86,-6.6,7.89
24.959616899490356,3.59,0.85,-7.52,8.37
24.9621639251709,3.38,-0.93,-7.3,8.09
24.964675903320312,2.94,-3.53,-7.39,8.7
25.058279991149902,-0.64,-6.43,1.14,6.56
25.059826850891113,-7.87,-12.06,15.94,21.48
25.060945987701416,-9.18,-11.23,1.44,14.57
25.0732638835907,-11.05,-7.89,0.81,13.6
25.07478904724121,-9.72,-8.68,3.61,13.52
25.077651977539062,-4.5,-11.9,-1.08,12.76
25.080211877822876,-1.7,-12.0,-3.18,12.53
25.082749843597412,-1.78,-8.98,-1.05,9.21
25.085397958755493,-2.2,-1.37,1.55,3.01
25.086500883102417,-1.06,3.19,0.38,3.38
25.08874797821045,0.32,4.47,-1.78,4.82
25.182562828063965,0.69,5.61,-1.87,5.95
25.184207916259766,0.53,7.08,-0.52,7.11
25.185345888137817,-0.32,7.32,0.6,7.35
25.18652582168579,-2.03,4.89,2.32,5.78
25.2062029838562,-2.3,0.3,2.43,3.35
25.20749807357788,-0.17,-3.85,-0.12,3.85
25.210120916366577,3.13,-5.96,-3.23,7.46
25.21268391609192,5.45,-6.28,-4.05,9.24
25.215362071990967,3.98,-3.3,-1.56,5.4
25.218097925186157,0.0,0.3,-0.25,0.39
25.31168794631958,-0.67,0.95,-0.16,1.17
25.31305503845215,-0.94,1.27,0.72,1.73
25.315172910690308,-1.51,1.76,1.31,2.66
25.317733764648438,-1.03,0.96,1.03,1.74
25.320311069488525,-0.33,0.07,0.39,0.51
25.321403980255127,-0.3,-0.55,0.01,0.62
25.338890075683594,-0.35,-0.41,-0.33,0.63
25.34048080444336,-0.35,0.08,-0.01,0.35
25.34284782409668,-0.37,0.14,0.4,0.56
25.345462799072266,-0.3,-0.29,0.53,0.67
25.43893003463745,-0.55,-0.6,0.43,0.92
25.440494060516357,-1.04,-0.82,0.29,1.35
25.441619873046875,-0.87,-1.03,0.34,1.39
25.444567918777466,-0.62,-0.84,0.35,1.1
25.447216033935547,-0.72,-0.53,0.27,0.93
25.449761867523193,-0.71,0.02,-0.06,0.71
25.45217490196228,-0.81,0.34,-0.24,0.91
25.4532790184021,-0.92,0.31,-0.28,1.01
25.45523691177368,-1.02,-0.13,-0.14,1.03
25.457711935043335,-0.85,-0.63,-0.23,1.08
25.54866075515747,-0.52,-0.76,-0.56,1.07
25.550285816192627,-0.39,-0.74,-0.58,1.01
25.551455974578857,-0.56,-0.66,-0.36,0.93
25.554414987564087,-0.74,-0.54,-0.12,0.92
25.555566787719727,-0.92,-0.5,-0.01,1.04
25.572386980056763,-1.07,-0.64,-0.05,1.24
25.573668956756592,-1.01,-1.12,0.02,1.5
25.576478004455566,-0.57,-1.59,0.21,1.7
25.57900905609131,-0.4,-1.61,0.19,1.66
25.581552028656006,-0.75,-1.42,0.16,1.61
25.673340797424316,-0.96,-1.34,-0.17,1.65
25.674948930740356,-0.82,-2.06,-0.52,2.27
25.676098823547363,-0.72,-3.61,-0.97,3.8
25.690363883972168,-0.59,-5.47,-1.07,5.6
25.691679000854492,-0.96,-6.64,-1.07,6.79
25.694135904312134,-1.4,-7.06,-1.34,7.32
25.696820974349976,-1.75,-7.87,-1.42,8.18
25.69937491416931,-2.58,-8.83,-0.57,9.21
25.701648950576782,-3.04,-10.04,0.61,10.5
25.70408582687378,-4.16,-11.46,0.71,12.21
25.79425597190857,-7.51,-12.13,0.87,14.29
25.79577398300171,-12.89,-11.72,1.57,17.49
25.796973943710327,-8.15,-11.74,-0.21,14.29
25.79991102218628,-4.65,-10.73,-1.73,11.82
25.802384853363037,-4.77,-8.02,0.18,9.33
25.803473949432373,-5.64,-2.6,4.47,7.65
25.805537939071655,-6.72,1.74,15.89,17.34
25.808027982711792,-10.91,3.66,26.79,29.15
25.8105731010437,-10.21,4.86,11.43,16.07
25.813113927841187,-9.67,7.09,6.04,13.42
25.904422760009766,-11.1,6.08,6.56,14.25
25.905999898910522,-13.3,5.19,6.9,15.85
25.907047986984253,-14.61,3.6,5.89,16.15
25.909981966018677,-14.66,2.45,4.45,15.51
25.91255283355713,-14.3,1.43,2.51,14.58
25.915133953094482,-13.58,0.01,0.88,13.6
25.917705059051514,-11.13,-1.47,0.0,11.22
25.92053985595703,-7.27,-2.4,-0.53,7.67
25.921623945236206,-4.53,-3.05,-0.66,5.5
25.940064907073975,-3.39,-3.28,-0.49,4.74
26.03062391281128,-2.36,-4.13,-0.51,4.78
26.032190799713135,-1.16,-5.1,-0.7,5.27
26.03338098526001,0.09,-5.57,-1.11,5.68
26.036272048950195,0.5,-5.93,-1.8,6.21
26.037394046783447,0.08,-5.24,-3.22,6.15
26.040477991104126,-0.44,-4.18,-4.17,5.92
26.043006896972656,-0.25,-3.49,-4.9,6.02
26.04552698135376,0.2,-2.7,-5.62,6.23
26.048047065734863,0.92,-1.97,-6.22,6.58
26.050561904907227,1.38,-1.31,-6.45,6.72
26.052928924560547,1.05,-0.85,-6.38,6.52
26.142366886138916,0.95,-0.62,-5.74,5.85
26.143946886062622,1.17,-1.05,-4.43,4.7
26.145133018493652,2.23,-2.37,-2.86,4.33
26.14787006378174,3.5,-3.23,-2.34,5.3
26.15044093132019,3.95,-2.58,-2.76,5.46
26.152812957763672,3.8,-1.63,-3.72,5.56
26.154897928237915,3.64,-1.38,-4.83,6.2
26.157449960708618,3.41,-1.57,-5.83,6.93
26.160003900527954,3.24,-2.11,-6.22,7.32
26.16252088546753,3.19,-2.52,-6.87,7.98
26.254223823547363,4.3,-2.68,-7.52,9.06
26.255838871002197,5.27,-2.24,-8.05,9.87
26.256938934326172,5.78,-1.46,-8.67,10.52
26.259910106658936,6.39,-0.44,-9.62,11.55
26.262447834014893,7.37,0.04,-10.11,12.51
26.26496195793152,8.08,0.56,-8.93,12.05
26.267525911331177,7.87,0.82,-6.53,10.25
26.270004987716675,6.57,1.12,-4.95,8.3
26.271065950393677,4.84,1.1,-3.87,6.29
26.274094104766846,4.09,0.54,-3.37,5.32
26.365165948867798,4.82,-1.15,-1.07,5.06
26.3667209148407,3.33,0.17,0.94,3.46
26.36782693862915,-3.2,2.49,1.35,4.27
26.37082576751709,-9.7,-2.64,2.24,10.29
26.371938943862915,-4.47,-5.38,-2.72,7.5
26.39048480987549,0.75,-7.23,0.82,7.31
26.391729831695557,6.09,-15.22,-0.08,16.39
26.39424180984497,5.23,-19.0,-9.56,21.9
26.396951913833618,2.67,-19.42,-18.02,26.62
26.399363040924072,0.76,-11.61,-17.52,21.03
26.492580890655518,0.04,-1.38,-9.99,10.08
26.49414300918579,-0.39,2.81,-3.98,4.88
26.495248794555664,-1.42,5.48,2.42,6.15
26.508277893066406,-2.47,7.36,5.03,9.25
26.50953698158264,-0.01,6.38,1.58,6.57
26.512178897857666,2.87,2.16,1.98,4.1
26.514731884002686,3.34,-1.75,1.58,4.08
26.517326831817627,2.91,-3.94,-1.73,5.19
26.51976990699768,2.52,-4.95,-3.53,6.58
26.52088689804077,1.56,-2.78,-1.54,3.54
26.61250400543213,0.53,0.44,0.38,0.78
26.614051818847656,0.44,1.08,-0.56,1.29
26.615144968032837,0.95,0.46,-0.1,1.06
26.618108987808228,1.38,-0.1,0.8,1.59
26.620866775512695,0.93,0.09,1.04,1.39
26.6219539642334,0.21,0.27,0.72,0.79
26.639873027801514,-0.37,0.1,0.07,0.38
26.641296863555908,-0.75,-0.14,-0.54,0.93
26.6441650390625,-0.54,0.03,-0.8,0.96
26.64682102203369,0.04,0.45,-0.72,0.85
26.737974882125854,0.17,0.5,-0.71,0.88
26.739515781402588,0.05,0.31,-0.85,0.9
26.740622997283936,0.12,0.05,-0.56,0.57
26.743560791015625,-0.17,0.23,-0.26,0.38
26.746098041534424,-1.12,0.55,0.66,1.41
26.748610973358154,-1.37,0.41,1.44,2.02
26.751161098480225,-0.89,0.16,1.22,1.51
26.75436496734619,-0.65,-0.01,0.8,1.03
26.75543189048767,-0.07,-0.4,-0.05,0.4
26.773312091827393,0.02,-0.42,-0.8,0.9
26.862725973129272,-0.21,-0.56,-0.77,0.97
26.864316940307617,-0.51,-0.8,-0.29,0.99
26.865467071533203,-0.76,-1.38,0.43,1.63
26.868406772613525,-1.07,-1.78,1.23,2.41
26.871083974838257,-1.28,-1.48,1.43,2.42
26.872188091278076,-1.47,-1.11,1.1,2.14
26.890356063842773,-1.37,-0.87,0.65,1.74
26.891586780548096,-1.37,-0.85,0.41,1.66
26.893959999084473,-1.42,-0.89,0.5,1.74
26.896424770355225,-1.08,-1.59,0.95,2.14
26.986787796020508,-1.2,-2.22,1.23,2.8
26.988342761993408,-1.35,-2.64,1.24,3.21
26.989455938339233,-1.57,-3.13,0.97,3.63
26.992414951324463,-2.35,-3.72,0.55,4.43
26.994956016540527,-3.06,-4.51,0.13,5.45
26.99750590324402,-4.18,-5.4,0.05,6.82
27.000045776367188,-5.72,-6.44,0.27,8.61
27.002649784088135,-6.38,-7.96,0.78,10.23
27.00501775741577,-7.01,-9.41,1.11,11.78
27.006119966506958,-8.38,-10.72,-0.22,13.6
27.023534774780273,-9.25,-13.08,-1.89,16.13
27.11250591278076,-10.1,-14.33,-0.83,17.55
27.114133834838867,-10.08,-12.6,3.18,16.44
27.115355014801025,-8.87,-9.21,5.55,13.93
27.118278980255127,-7.24,-6.04,3.07,9.91
27.121198892593384,-5.82,-4.21,-0.65,7.21
27.122304916381836,-5.26,-2.14,-0.17,5.68
27.139527797698975,-6.71,0.27,3.01,7.35
27.141008853912354,-7.94,2.56,6.26,10.42
27.14360475540161,-9.77,4.14,9.12,13.99
27.146155834197998,-10.64,4.05,9.31,14.7
27.237061977386475,-10.07,3.84,8.81,13.92
27.238626956939697,-9.79,4.31,7.49,13.05
27.239749908447266,-9.62,5.22,6.71,12.83
27.242690086364746,-9.66,6.07,6.67,13.21
27.24516487121582,-9.42,6.45,6.69,13.23
27.24777889251709,-8.36,6.31,6.44,12.29
27.25031280517578,-6.68,5.5,5.52,10.26
27.252813816070557,-5.75,4.7,4.21,8.53
27.25524091720581,-5.68,3.43,3.35,7.43
27.25632905960083,-5.11,1.86,2.92,6.17
27.36199378967285,-4.09,0.3,2.53,4.81
27.363423824310303,-3.07,-0.23,1.91,3.62
27.364621877670288,-2.13,-0.64,-0.14,2.22
27.36748695373535,-2.52,-2.14,-2.69,4.26
27.369926929473877,-3.68,-3.34,-4.66,6.81
27.371004104614258,-2.88,-3.78,-7.82,9.15
27.373143911361694,-1.58,-4.27,-9.34,10.39
27.375667095184326,-0.31,-5.13,-9.66,10.94
27.378192901611328,1.15,-4.76,-11.32,12.33
27.38063383102417,1.91,-3.54,-13.12,13.72
27.47218084335327,3.34,-3.29,-13.94,14.7
27.473735809326172,4.94,-3.39,-13.82,15.06
27.474859952926636,5.17,-2.3,-14.58,15.63
27.477817058563232,5.87,-1.92,-14.6,15.85
27.480350017547607,6.74,-1.68,-14.25,15.85
27.482683897018433,7.39,-2.64,-11.92,14.27
27.485260009765625,9.07,-2.3,-10.12,13.78
27.48807382583618,10.48,-2.43,-11.09,15.45
27.48918581008911,11.36,-2.01,-12.81,17.23
27.50751304626465,11.46,-0.58,-12.04,16.63
27.596065998077393,10.66,0.56,-10.89,15.24
27.597636938095093,9.92,1.61,-10.65,14.64
27.598827838897705,9.22,2.38,-9.91,13.74
27.601732969284058,8.5,2.65,-8.87,12.56
27.604830980300903,8.07,2.01,-7.64,11.29
27.60593605041504,5.61,-1.36,-3.23,6.61
27.623294830322266,0.03,-7.62,7.46,10.66
27.624905109405518,-0.95,-12.32,11.75,17.05
27.627398014068604,1.22,-4.98,1.29,5.28
27.62973189353943,0.49,0.96,-2.49,2.71
27.719729900360107,-0.47,2.27,-2.38,3.32
27.721292972564697,-1.16,1.92,-1.8,2.87
27.722400903701782,-1.02,0.83,-1.03,1.67
27.72534990310669,-0.13,0.03,-0.44,0.45
27.727845907211304,0.48,-0.5,-0.24,0.73
27.730401039123535,-0.23,-0.31,0.42,0.57
27.73298406600952,-0.68,0.25,0.82,1.09
27.735509872436523,-0.3,0.15,0.23,0.4
27.738114833831787,0.05,-0.27,-0.13,0.3
27.739186763763428,0.29,-0.62,-0.32,0.75
27.844173908233643,0.38,-0.77,-1.01,1.32
27.845571994781494,0.13,-0.62,-0.94,1.13
27.846774101257324,-0.05,-0.64,-0.33,0.72
27.84968590736389,0.0,-0.56,0.28,0.62
27.85211491584778,-0.09,-0.51,0.35,0.62
27.854700088500977,-0.14,-0.13,0.03,0.19
27.856788873672485,-0.2,0.2,-0.07,0.29
27.874463081359863,-0.3,0.24,-0.07,0.39
27.875730991363525,-0.38,0.11,-0.3,0.49
27.87696409225464,-0.29,0.04,-0.42,0.51
27.966300010681152,-0.23,0.16,0.1,0.29
27.967819929122925,0.11,-0.07,0.31,0.33
27.968937873840332,0.42,-0.59,0.25,0.76
27.97188091278076,0.21,-0.61,0.16,0.66
27.972975969314575,-0.31,-0.42,0.53,0.74
27.990782976150513,-0.59,-0.25,0.42,0.76
27.992084980010986,-0.36,0.49,0.49,0.78
27.99490785598755,-0.14,0.41,1.02,1.1
27.997453927993774,-0.19,-0.29,1.3,1.34
28.000136852264404,-0.71,-0.58,0.75,1.18
28.00281000137329,-0.48,-0.35,-0.41,0.72
28.090763092041016,-0.23,-0.33,-0.63,0.74
28.09212303161621,-0.37,0.06,0.73,0.82
28.094239950180054,-0.04,-0.11,1.38,1.38
28.0969181060791,0.11,-1.09,0.96,1.45
28.099459886550903,-0.48,-1.35,0.28,1.45
28.10179090499878,-0.79,-1.08,0.06,1.33
28.104243755340576,-0.98,-1.18,-0.15,1.54
28.105316877365112,-1.35,-0.51,-0.53,1.53
28.108465909957886,-0.97,0.41,-0.53,1.17
28.11081600189209,-0.54,0.87,-0.34,1.07
28.19780206680298,-0.5,1.07,0.25,1.2
28.199362754821777,-0.37,0.91,0.86,1.3
28.20050287246704,0.34,0.41,1.12,1.24
28.20344090461731,0.62,-0.65,0.7,1.13
28.204555988311768,0.08,-1.43,0.21,1.44
28.207129955291748,-0.8,-1.33,-0.36,1.59
28.209479808807373,-1.21,-0.98,-0.58,1.66
28.21203088760376,-1.12,-1.34,-0.36,1.78
28.214447021484375,-1.31,-2.03,-0.56,2.48
28.216980934143066,-1.28,-2.65,-0.83,3.05
28.30317497253418,-1.52,-2.81,-0.56,3.24
28.304747104644775,-1.91,-2.24,-0.09,2.94
28.305872917175293,-1.49,-1.61,0.68,2.29
28.324570894241333,-1.07,-1.45,1.42,2.29
28.32577085494995,-0.99,-2.47,1.21,2.92
28.327488899230957,-1.03,-4.78,-0.24,4.89
28.330062866210938,-1.78,-7.3,-1.27,7.62
28.332616806030273,-3.39,-9.62,-1.35,10.28
28.335100889205933,-5.14,-9.97,-0.7,11.23
28.337708950042725,-6.84,-9.49,-0.84,11.72
28.423364877700806,-5.9,-10.27,-2.33,12.07
28.42498207092285,-3.99,-10.87,-2.01,11.75
28.42618489265442,-7.25,-10.59,-0.83,12.86
28.429161071777344,-8.16,-10.46,-1.71,13.37
28.431705951690674,-8.21,-8.06,-0.98,11.54
28.434141874313354,-7.7,-2.44,3.4,8.76
28.436461925506592,-7.16,3.0,9.58,12.33
28.438992023468018,-8.42,6.64,16.17,19.4
28.440099954605103,-10.0,9.62,22.72,26.62
28.457837104797363,-10.67,9.78,16.8,22.17
28.54390001296997,-11.48,8.21,9.38,16.94
28.54551410675049,-12.02,7.64,6.6,15.69
28.546684980392456,-11.62,6.8,5.67,14.6
28.54962992668152,-9.89,4.69,5.48,12.24
28.5522518157959,-6.97,2.73,5.11,9.06
28.555283069610596,-5.29,1.94,3.99,6.9
28.55638098716736,-4.25,1.68,1.6,4.84
28.57510280609131,-3.57,1.45,-0.59,3.89
28.5765118598938,-2.96,0.61,-2.44,3.88
28.579209804534912,-1.33,-0.82,-4.33,4.6
28.666927814483643,1.49,-2.98,-5.73,6.62
28.668524980545044,3.42,-5.48,-5.38,8.4
28.669678926467896,3.85,-6.24,-5.43,9.12
28.672619819641113,3.98,-5.88,-5.76,9.14
28.673842906951904,3.85,-4.52,-6.69,8.94
28.69156503677368,3.95,-2.43,-7.52,8.83
28.692814826965332,4.77,-0.56,-7.33,8.76
28.695405960083008,5.53,0.74,-6.7,8.71
28.69794487953186,6.7,1.52,-6.99,9.8
28.700562953948975,7.8,2.09,-6.81,10.56
28.788678884506226,8.16,2.36,-5.85,10.31
28.790297985076904,7.41,2.7,-5.23,9.46
28.791407108306885,6.26,2.66,-4.51,8.16
28.809112071990967,5.53,2.49,-4.33,7.45
28.810400009155273,4.8,2.51,-4.19,6.84
28.812976837158203,3.83,2.37,-4.19,6.15
28.815303802490234,2.92,2.06,-3.54,5.03
28.817820072174072,2.42,1.69,-3.56,4.62
28.820324897766113,1.87,1.03,-3.62,4.2
28.822664976119995,1.42,0.32,-3.43,3.72
28.90857696533203,1.43,-1.59,-3.85,4.4
28.91010594367981,1.59,-3.8,-4.59,6.16
28.911293029785156,1.22,-4.79,-4.03,6.37
28.914330005645752,1.23,-4.36,-2.03,4.96
28.91686201095581,3.17,-2.45,-1.57,4.3
28.919389963150024,3.94,-0.04,-2.72,4.78
28.922107934951782,3.75,1.34,-2.38,4.63
28.923213958740234,3.56,1.27,-1.79,4.18
28.94192886352539,3.78,0.96,-1.69,4.25
28.943394899368286,4.59,0.41,-2.24,5.12
28.94622492790222,5.17,-0.16,-3.24,6.1
29.033633947372437,4.76,-0.63,-3.57,5.98
29.03518795967102,3.55,-0.82,-2.76,4.57
29.03630781173706,3.01,-0.46,-1.32,3.31
29.039220809936523,3.29,-0.36,-0.09,3.31
29.040245056152344,2.69,-0.64,0.94,2.92
29.05828285217285,1.5,-0.94,1.78,2.51
29.059575080871582,0.85,-1.36,1.72,2.35
29.062448024749756,1.1,-2.13,0.84,2.54
29.06512975692749,1.85,-3.17,0.26,3.67
29.067749977111816,1.8,-3.43,0.0,3.87
29.15494990348816,0.55,-2.84,1.02,3.06
29.156521797180176,-0.49,-1.85,2.73,3.33
29.157609939575195,-0.59,-1.11,2.34,2.65
29.175880908966064,0.02,-0.93,-3.61,3.72
29.177129983901978,-3.53,-3.05,1.98,5.06
29.179714918136597,-4.67,-1.42,4.34,6.53
29.182264804840088,-2.94,2.23,0.55,3.73
29.184807777404785,-5.27,-4.29,-3.19,7.5
29.187455892562866,-7.66,-15.18,-11.79,20.69
29.18982195854187,-5.91,-22.45,-8.51,24.72
29.275240898132324,0.28,-20.65,4.95,21.23
29.276795864105225,-2.0,-4.21,11.94,12.81
29.277952909469604,-1.84,4.62,7.17,8.72
29.280807971954346,0.67,6.24,3.77,7.32
29.283373832702637,1.48,6.72,0.82,6.92
29.285895824432373,0.67,6.28,-2.96,6.97
29.28887176513672,-0.43,4.87,-4.12,6.39
29.28997802734375,-1.56,2.61,-3.58,4.69
29.309246063232422,-0.49,-1.77,-2.24,2.89
29.31058979034424,2.81,-6.13,-1.27,6.86
29.398884773254395,2.93,-5.48,-0.4,6.22
29.400446891784668,-0.15,-1.07,0.38,1.14
29.401550769805908,-0.73,1.05,0.11,1.28
29.404397010803223,-0.44,1.15,0.77,1.45
29.405508041381836,-0.46,1.04,0.93,1.46
29.407785892486572,0.01,1.3,0.27,1.32
29.410308837890625,0.44,1.24,-0.5,1.4
29.412810802459717,0.49,1.0,-0.63,1.27
29.415366888046265,1.72,0.38,-0.32,1.79
29.417890071868896,0.88,-0.17,0.6,1.07
29.50438690185547,-0.94,-0.07,0.94,1.33
29.50611400604248,-1.02,-0.43,0.92,1.43
29.507200956344604,-0.87,-0.78,1.61,1.98
29.526227951049805,-0.24,-0.84,1.81,2.0
29.52748680114746,-0.26,-0.2,0.6,0.68
29.53009605407715,0.28,0.14,-0.11,0.33
29.53263807296753,0.77,0.74,0.08,1.07
29.535316944122314,0.37,0.26,0.39,0.59
29.537755012512207,0.42,-0.04,-0.11,0.43
29.538968086242676,0.31,0.03,-0.36,0.47
29.626445770263672,-0.78,0.02,-0.35,0.85
29.62803602218628,-0.76,0.19,-0.62,0.99
29.62912893295288,-0.73,0.12,-0.19,0.76
29.631985902786255,-1.07,-0.07,0.41,1.14
29.634521961212158,-2.61,-0.34,0.74,2.73
29.637075901031494,-2.75,-1.58,0.64,3.23
29.63955307006836,-0.91,-2.21,1.27,2.7
29.64066195487976,-1.11,-1.25,0.65,1.79
29.658968925476074,-1.71,-0.32,-0.64,1.85
29.660331964492798,-1.42,-0.15,-0.83,1.65
29.746362924575806,-0.58,-0.53,-0.25,0.82
29.74782085418701,0.08,-0.95,0.16,0.96
29.748923778533936,0.21,-1.0,0.05,1.02
29.751815795898438,0.17,-1.08,-0.23,1.11
29.75413489341736,-0.15,-0.8,-0.32,0.87
29.75659704208374,-0.29,-0.23,-0.41,0.55
29.75771999359131,-0.41,0.37,-0.35,0.65
29.77591609954834,-1.46,0.65,0.42,1.65
29.777278900146484,-2.58,-0.54,1.0,2.81
29.779951095581055,-2.15,-1.94,0.27,2.9
29.86684799194336,-2.1,-2.48,-0.92,3.37
29.86843490600586,-2.84,-3.09,-1.62,4.49
29.869548797607422,-1.9,-5.59,-1.73,6.15
29.872524976730347,-1.21,-8.37,-1.32,8.55
29.8736310005188,-2.54,-9.95,-1.01,10.31
29.892996788024902,-4.56,-10.36,-1.24,11.38
29.894240856170654,-6.15,-9.66,-1.24,11.51
29.896723985671997,-8.05,-8.46,-1.0,11.72
29.899359941482544,-10.91,-8.26,-1.89,13.81
29.901962757110596,-9.79,-9.52,-5.07,14.56
29.904576778411865,-9.2,-8.98,-4.88,13.75
29.989373922348022,-6.15,-5.39,-0.3,8.18
29.990936756134033,-1.93,1.17,6.8,7.16
29.992039918899536,3.22,6.4,24.28,25.31
29.995028018951416,2.18,10.72,22.64,25.14
29.997573852539062,-2.94,11.28,4.48,12.48
30.000043869018555,-4.88,11.45,2.86,12.77
30.002525806427002,-7.28,10.05,3.16,12.8
30.005029916763306,-9.97,6.4,3.1,12.24
30.006088972091675,-11.79,2.41,4.08,12.7
30.009274005889893,-10.97,-1.86,6.56,12.91
30.094958782196045,-5.81,-4.82,7.48,10.62
30.096508979797363,-3.08,-1.85,3.73,5.17
30.09761095046997,-1.6,-0.81,1.67,2.45
30.100542068481445,0.33,-1.01,1.72,2.02
30.103099822998047,0.99,-0.78,2.14,2.48
30.10599708557129,0.06,-0.06,2.04,2.04
30.107040882110596,-0.88,0.7,1.4,1.79
30.125024795532227,-0.96,0.8,0.6,1.38
30.1262469291687,-0.42,0.81,-0.4,0.99
30.128830909729004,0.17,1.04,-1.53,1.85
30.216012954711914,0.84,1.16,-2.57,2.94
30.217544078826904,1.61,1.21,-3.02,3.62
30.218783855438232,2.36,1.15,-2.65,3.73
30.221616983413696,2.98,0.8,-2.01,3.68
30.222747802734375,4.02,0.26,-2.08,4.53
30.224693775177002,5.24,-0.06,-3.58,6.34
30.227219104766846,5.52,-0.1,-4.89,7.37
30.229745864868164,5.28,-0.3,-5.28,7.47
30.232301950454712,5.0,-0.59,-5.12,7.18
30.234821796417236,5.05,-0.39,-4.91,7.05
30.319636821746826,5.21,-0.27,-4.99,7.21
30.32124900817871,5.24,0.05,-5.44,7.55
30.322385787963867,5.0,0.74,-5.51,7.47
30.32504391670227,4.82,1.32,-5.05,7.1
30.327605962753296,4.81,1.19,-4.78,6.88
30.3301420211792,4.69,0.33,-4.43,6.45
30.33256697654724,4.3,-0.58,-3.53,5.59
30.334996938705444,3.91,-1.25,-2.45,4.78
30.33747696876526,4.61,-1.13,-2.28,5.26
30.340791940689087,6.06,-0.22,-3.83,7.17
30.425326824188232,6.07,0.32,-4.89,7.8
30.426904916763306,4.83,0.8,-4.41,6.58
30.428095817565918,3.92,0.72,-3.19,5.1
30.431091785430908,4.08,-0.38,-2.0,4.55
30.433412075042725,4.46,-1.55,-1.52,4.96
30.435938835144043,4.48,-2.37,-1.8,5.37
30.438477993011475,3.91,-2.82,-1.21,4.97
30.43950891494751,3.3,-2.26,0.29,4.01
30.441575050354004,3.03,-1.42,1.03,3.5
30.44401979446411,2.77,-0.71,2.14,3.57
30.529430866241455,2.21,-0.43,3.62,4.26
30.531049966812134,1.46,-0.59,3.86,4.16
30.532197952270508,1.04,-0.93,3.15,3.44
30.535118103027344,0.43,-1.14,2.35,2.64
30.537705898284912,0.11,-1.68,2.0,2.61
30.540077924728394,0.5,-2.22,2.42,3.32
30.541260957717896,1.46,-2.28,1.94,3.33
30.558661937713623,1.77,-1.96,2.67,3.75
30.56002902984619,0.83,-1.06,4.99,5.16
30.562867879867554,0.89,0.34,-0.87,1.29
30.64894390106201,1.94,1.91,-5.49,6.12
30.650521755218506,2.29,1.48,-6.1,6.68
30.651648998260498,1.21,-1.77,-6.94,7.26
30.654496908187866,-1.98,-4.67,-3.18,5.98
30.656949043273926,-8.5,-7.39,-1.59,11.37
30.6580810546875,-12.21,-13.45,-3.51,18.5
30.675161838531494,-2.58,-21.16,-7.96,22.75
30.676467895507812,1.75,-21.14,1.41,21.25
30.679401874542236,-2.79,-10.93,13.52,17.6
30.681946754455566,-4.5,-0.35,10.33,11.27
30.767428874969482,-3.38,3.42,5.42,7.24
30.76903009414673,-1.88,3.81,1.8,4.61
30.77014684677124,-0.44,3.74,-1.03,3.9
30.773076057434082,0.57,2.97,-3.71,4.78
30.7742338180542,0.89,1.36,-5.14,5.39
30.79197096824646,1.36,-0.05,-3.94,4.16
30.79333996772766,1.16,0.7,-1.84,2.28
30.796091079711914,0.48,2.9,-0.92,3.08
30.798638820648193,0.49,4.41,-1.48,4.67
30.801177978515625,1.0,4.93,-1.78,5.33
30.80388879776001,1.4,5.18,-0.86,5.43
30.889659881591797,1.62,2.88,2.11,3.92
30.890987873077393,0.04,-0.45,3.91,3.93
30.893086910247803,0.89,-5.31,3.18,6.25
30.895684957504272,2.32,-7.48,0.12,7.83
30.898254871368408,-0.66,-2.78,-1.06,3.04
30.900743007659912,-1.65,0.49,-0.85,1.91
30.903316020965576,-1.91,-0.23,-1.98,2.76
30.906370878219604,-1.67,-1.86,-1.69,3.01
30.907437801361084,-1.7,-2.59,-0.45,3.13
30.925209045410156,-1.6,0.0,1.85,2.44
31.00985288619995,0.66,1.98,4.18,4.67
31.011419773101807,1.76,1.76,4.14,4.83
31.012584924697876,0.57,0.49,1.78,1.93
31.015514850616455,0.02,-0.9,0.31,0.95
31.018043041229248,-0.91,-1.41,-0.4,1.72
31.020444869995117,-1.95,-1.48,-1.15,2.7
31.023401975631714,-1.89,-0.85,-1.56,2.59
31.024593830108643,-1.53,-1.09,-1.24,2.25
31.0433189868927,-1.17,-1.9,-0.55,2.29
31.044723987579346,0.84,-1.58,0.66,1.9
31.13029193878174,0.72,-0.97,1.65,2.04
31.13185977935791,0.18,-0.84,1.69,1.89
31.132946968078613,-0.49,-2.24,1.22,2.59
31.13582181930542,-1.1,-4.4,-0.38,4.55
31.138397932052612,-1.88,-4.84,-1.47,5.39
31.139437913894653,-2.65,-4.59,-1.58,5.53
31.14178490638733,-2.6,-5.4,-1.14,6.1
31.144219875335693,-2.52,-6.53,-0.7,7.03
31.146753787994385,-2.72,-7.73,-0.46,8.2
31.149280071258545,-3.38,-8.7,-1.11,9.39
31.234933853149414,-5.55,-9.92,-2.13,11.56
31.23648190498352,-6.24,-11.6,-2.2,13.35
31.23764181137085,-4.71,-12.67,-0.82,13.54
31.240070819854736,-5.7,-12.9,-0.44,14.11
31.241195917129517,-8.4,-11.67,0.25,14.38
31.258323907852173,-9.1,-7.49,3.42,12.27
31.259929895401,-6.87,-1.45,7.42,10.21
31.262545108795166,-5.38,3.01,10.63,12.28
31.26509690284729,-5.91,6.62,18.36,20.39
31.26730990409851,-8.94,9.33,30.51,33.13
31.350579977035522,-7.76,8.33,12.55,16.94
31.35219693183899,-8.07,6.79,5.36,11.83
31.35332202911377,-9.5,6.5,5.04,12.56
31.35682201385498,-10.94,5.99,3.89,13.06
31.357975006103516,-12.38,4.69,2.87,13.54
31.376014947891235,-11.75,1.9,3.26,12.34
31.377227783203125,-7.02,0.13,4.22,8.19
31.379714012145996,-4.23,-0.48,2.97,5.19
31.38224196434021,-3.34,-1.02,0.91,3.6
31.384904861450195,-2.75,-1.64,-0.92,3.33
31.468333959579468,-2.11,-1.97,-2.67,3.93
31.469804763793945,-0.93,-2.37,-3.26,4.13
31.4709529876709,1.77,-3.42,-3.25,5.03
31.47473907470703,4.23,-3.83,-4.18,7.07
31.476478099822998,5.57,-3.24,-4.88,8.08
31.49266004562378,6.37,-2.2,-5.17,8.49
31.493940830230713,7.47,-1.5,-5.64,9.47
31.496863842010498,8.41,-1.3,-6.49,10.7
31.49941396713257,9.03,-1.16,-7.41,11.73
31.502075910568237,8.46,-1.26,-7.29,11.23
31.58641481399536,7.81,-1.67,-6.85,10.52
31.588080883026123,8.1,-1.58,-6.52,10.51
31.58919596672058,8.09,-0.95,-5.52,9.83
31.59169292449951,7.31,-0.21,-4.93,8.81
31.60848379135132,6.57,0.48,-5.97,8.89
31.609906911849976,5.77,0.97,-6.48,8.73
31.61261296272278,4.95,1.92,-6.28,8.22
31.615081787109375,4.37,2.51,-5.7,7.6
31.61762285232544,4.13,2.81,-4.4,6.65
31.62016010284424,3.41,2.5,-3.94,5.77
31.704946994781494,2.61,1.14,-3.53,4.53
31.706315994262695,2.43,0.89,-3.58,4.41
31.70838689804077,2.13,-0.05,-3.44,4.04
31.710978984832764,1.74,-1.37,-3.08,3.79
31.713433980941772,1.81,-2.47,-3.23,4.45
31.715980052947998,2.48,-2.91,-3.59,5.24
31.71852397918701,3.02,-2.4,-4.16,5.67
31.721020936965942,2.7,-1.11,-2.81,4.05
31.723555088043213,2.08,1.3,-0.6,2.52
31.72461986541748,1.63,1.57,0.54,2.32
31.74296498298645,1.41,0.7,0.75,1.74
31.826143980026245,0.91,0.56,0.89,1.39
31.82773995399475,1.48,0.23,0.83,1.71
31.828897953033447,2.54,0.04,0.35,2.56
31.831652879714966,2.47,0.2,0.39,2.5
31.834224939346313,1.76,0.45,1.37,2.27
31.836458921432495,1.87,0.34,2.47,3.11
31.838956832885742,1.7,0.59,3.58,4.0
31.840023040771484,1.17,0.87,3.18,3.49
31.84216594696045,0.65,1.05,2.09,2.42
31.84460210800171,0.53,0.59,1.4,1.6
31.927783966064453,1.37,-0.52,1.01,1.77
31.92935085296631,1.83,-1.35,0.95,2.46
31.930473804473877,1.77,-1.84,0.91,2.71
31.933422088623047,1.42,-1.9,0.76,2.49
31.935940980911255,1.79,-2.29,-1.39,3.22
31.938514947891235,2.64,-0.81,-2.92,4.01
31.940937995910645,2.59,-0.11,-5.8,6.35
31.942089080810547,0.92,-2.83,-6.62,7.25
31.959438800811768,-3.23,-6.16,-6.0,9.18
31.960851907730103,-10.5,-10.58,-4.25,15.49
32.04579782485962,-13.06,-12.63,-4.13,18.63
32.04732608795166,-1.74,-11.84,-8.23,14.52
32.048462867736816,0.69,-7.92,-1.76,8.14
32.051389932632446,-1.9,-4.21,9.79,10.82
32.053844928741455,-0.7,-1.21,13.26,13.33
32.057050943374634,1.19,1.15,10.58,10.7
32.05812978744507,0.83,2.52,4.83,5.51
32.075870990753174,-1.13,2.48,-0.06,2.72
32.07725286483765,-0.59,1.63,-3.04,3.49
32.07996606826782,0.06,0.74,-4.37,4.43
32.165442943573,0.84,-0.78,-4.04,4.19
32.16702198982239,1.13,-1.83,-2.84,3.56
32.16812705993652,0.58,-1.37,-1.09,1.84
32.1710479259491,0.05,0.26,0.16,0.3
32.173680782318115,-0.19,0.58,-0.33,0.69
32.174766063690186,0.05,-0.17,-0.86,0.87
32.192256927490234,-0.52,0.35,-0.65,0.9
32.19383788108826,-0.28,1.13,0.06,1.16
32.19641399383545,-0.08,0.56,0.91,1.07
32.19896078109741,0.15,-0.18,1.16,1.18
32.28466176986694,0.4,-0.93,0.95,1.38
32.286213874816895,0.09,-0.79,0.39,0.88
32.28732395172119,-0.39,-0.28,0.0,0.48
32.29056096076965,-0.79,-0.06,-0.28,0.84
32.291701793670654,-0.66,-0.1,-0.1,0.67
32.312142848968506,-0.95,-0.11,0.27,0.99
32.31352186203003,-0.5,-0.41,0.36,0.74
32.316224098205566,-0.43,-0.57,0.71,1.0
32.318856954574585,-0.56,-0.66,0.81,1.18
32.32139301300049,-0.23,-1.07,0.8,1.35
32.40668797492981,-0.36,-1.42,0.72,1.63
32.40801191329956,-1.02,-1.09,0.28,1.51
32.410101890563965,-1.37,-0.63,0.06,1.5
32.412635803222656,-1.12,-0.57,0.32,1.29
32.41516089439392,-0.44,-0.37,0.6,0.83
32.41736888885498,0.05,-0.32,0.82,0.88
32.41993284225464,-0.2,-0.15,0.77,0.8
32.42262506484985,-0.65,0.26,0.41,0.81
32.42369079589844,-0.74,0.27,0.15,0.8
32.42572093009949,-0.92,0.39,0.04,1.0
32.51015901565552,-0.74,-0.03,0.08,0.74
32.51175093650818,-0.26,-1.25,0.38,1.33
32.51286602020264,-0.22,-2.79,0.07,2.79
32.515721797943115,-0.96,-4.47,-0.54,4.6
32.51836585998535,-1.04,-7.07,-1.65,7.33
32.520909786224365,-1.27,-9.82,-2.93,10.32
32.52390480041504,-2.9,-11.78,-3.83,12.72
32.52499580383301,-5.17,-12.18,-3.83,13.77
32.54269194602966,-7.52,-12.45,-3.16,14.88
32.54407787322998,-13.27,-12.54,-2.8,18.47
32.62967586517334,-8.57,-13.31,-4.84,16.55
32.631381034851074,-7.71,-13.49,-2.49,15.73
32.63257193565369,-12.18,-12.59,-1.2,17.55
32.63555693626404,-11.01,-6.11,6.92,14.36
32.638142108917236,-7.9,2.62,16.36,18.35
32.640647888183594,-3.66,8.85,22.65,24.59
32.64178490638733,-4.27,12.28,34.38,36.75
32.65916895866394,-5.94,9.98,14.69,18.72
32.66073393821716,-7.79,7.22,4.62,11.58
32.66331100463867,-10.36,6.34,5.48,13.32
32.665996074676514,-12.25,5.51,5.41,14.48
32.75159502029419,-12.35,3.55,3.39,13.28
32.75365400314331,-10.12,1.92,2.64,10.63
32.7547550201416,-6.61,1.26,2.5,7.17
32.75761294364929,-4.63,0.52,2.3,5.19
32.75871801376343,-3.1,0.37,0.68,3.19
32.776182889938354,-1.4,-0.04,-2.19,2.59
32.777448892593384,-0.03,-0.39,-3.25,3.27
32.78004193305969,1.91,-1.38,-1.06,2.58
32.7824809551239,4.44,-3.18,0.87,5.53
32.785064935684204,5.87,-3.94,0.36,7.07
32.871870040893555,6.34,-3.83,-1.96,7.66
32.873469829559326,7.19,-3.29,-3.54,8.66
32.87464189529419,7.91,-2.41,-4.08,9.22
32.877583026885986,8.48,-1.5,-3.39,9.25
32.88011980056763,8.79,-0.78,-2.01,9.05
32.88263702392578,7.72,-0.18,-1.92,7.95
32.88517689704895,7.17,0.79,-3.76,8.13
32.88770890235901,6.74,1.72,-4.94,8.53
