time,ax,ay,az,atotal
0.04635286331176758,-0.17,0.22,-0.15,0.31
0.04815077781677246,-0.06,0.09,-0.09,0.14
0.049707889556884766,0.03,0.03,-0.07,0.08
0.05240583419799805,0.01,0.02,0.06,0.06
0.05496978759765625,-0.03,-0.02,0.02,0.04
0.0565037727355957,-0.02,0.03,-0.06,0.06
0.07289695739746094,0.01,0.16,-0.01,0.16
0.07456684112548828,0.02,0.17,0.01,0.17
0.0834968090057373,0.01,0.07,0.01,0.07
0.09418678283691406,-0.06,0.01,0.03,0.06
0.14254283905029297,-0.14,0.04,0.08,0.16
0.144378662109375,-0.19,0.17,0.15,0.29
0.14587688446044922,-0.21,0.23,0.19,0.36
0.14891290664672852,-0.18,0.19,0.16,0.3
0.15158891677856445,-0.12,0.13,0.1,0.2
0.15428972244262695,-0.02,0.1,0.06,0.11
0.16297388076782227,0.08,0.09,0.04,0.12
0.17302370071411133,0.1,0.1,0.02,0.14
0.18332767486572266,0.07,0.12,0.01,0.13
0.1932697296142578,-0.01,0.13,0.02,0.13
0.2419109344482422,-0.11,0.12,0.03,0.16
0.2437429428100586,-0.19,0.11,0.04,0.22
0.24524283409118652,-0.22,0.08,0.05,0.23
0.24823570251464844,-0.21,0.05,-0.01,0.21
0.2507898807525635,-0.21,0.01,-0.09,0.22
0.25299882888793945,-0.18,-0.02,-0.14,0.22
0.2626938819885254,-0.13,-0.01,-0.16,0.2
0.27237486839294434,-0.07,0.01,-0.1,0.12
0.28261470794677734,0.01,0.03,-0.1,0.1
0.2924478054046631,0.08,0.04,-0.06,0.1
0.34594082832336426,0.17,0.02,0.01,0.17
0.3476548194885254,0.22,0.03,0.03,0.22
0.3491628170013428,0.23,0.08,0.07,0.25
0.35213565826416016,0.24,0.14,0.12,0.3
0.35471677780151367,0.2,0.19,0.18,0.32
0.3562016487121582,0.14,0.2,0.19,0.3
0.37300777435302734,0.12,0.19,0.28,0.35
0.37463879585266113,0.09,0.2,0.36,0.42
0.3815736770629883,0.04,0.22,0.34,0.4
0.39175891876220703,0.0,0.22,0.29,0.36
0.44563770294189453,-0.11,0.23,0.23,0.34
0.44739866256713867,-0.23,0.13,0.18,0.31
0.44889187812805176,-0.36,0.04,0.14,0.38
0.45181894302368164,-0.41,0.03,0.18,0.44
0.4555637836456299,-0.33,0.07,0.21,0.39
0.4574756622314453,-0.27,0.17,0.22,0.38
0.4732856750488281,-0.16,0.27,0.22,0.38
0.4747037887573242,-0.02,0.35,0.18,0.39
0.4808497428894043,0.06,0.36,0.23,0.43
0.49094200134277344,0.17,0.27,0.23,0.39
0.5444188117980957,0.23,0.16,0.28,0.39
0.5460748672485352,0.21,0.02,0.35,0.4
0.5476107597351074,0.12,0.0,0.44,0.45
0.5501847267150879,0.09,0.08,0.62,0.63
0.5528616905212402,0.2,0.18,0.59,0.64
0.5543179512023926,0.23,0.21,0.37,0.48
0.5603768825531006,0.17,0.16,0.26,0.34
0.5702998638153076,0.09,0.14,0.09,0.18
0.5806257724761963,-0.03,0.09,0.08,0.12
0.5901198387145996,-0.27,0.09,0.27,0.39
0.6444549560546875,-0.37,0.09,0.36,0.52
0.6461808681488037,-0.26,0.05,0.25,0.36
0.6477689743041992,-0.15,0.06,0.23,0.28
0.6504826545715332,-0.02,0.12,0.09,0.15
0.6530108451843262,0.27,0.14,0.04,0.3
0.6544408798217773,0.52,0.1,0.21,0.56
0.6597247123718262,0.77,0.06,0.23,0.8
0.6695377826690674,0.95,0.01,0.18,0.96
0.6800689697265625,0.94,0.0,0.22,0.96
0.6900548934936523,0.9,0.03,0.29,0.94
0.6998639106750488,0.92,0.04,0.33,0.97
0.7471456527709961,0.91,0.13,0.44,1.01
0.7491507530212402,0.8,0.24,0.57,1.01
0.7505707740783691,0.54,0.4,0.65,0.93
0.755612850189209,0.14,0.54,0.83,1.0
0.7575669288635254,-0.22,0.65,0.9,1.13
0.7602429389953613,-0.59,0.69,0.74,1.17
0.768913745880127,-0.96,0.66,0.39,1.22
0.7793757915496826,-1.18,0.52,0.22,1.3
0.7889947891235352,-1.23,0.31,0.25,1.29
0.7988348007202148,-1.27,0.2,0.32,1.32
0.8466486930847168,-1.34,0.2,0.42,1.41
0.8487749099731445,-1.49,0.34,0.67,1.66
0.8503818511962891,-1.74,0.57,0.7,1.96
0.8531608581542969,-1.98,0.72,0.8,2.25
0.854672908782959,-2.26,0.73,1.11,2.62
0.8584458827972412,-2.34,0.63,1.31,2.75
0.8686428070068359,-2.25,0.56,0.88,2.48
0.8784778118133545,-1.95,0.5,0.87,2.19
0.8883018493652344,-1.15,0.24,0.65,1.34
0.898749828338623,-0.86,0.13,0.0,0.86
0.9460439682006836,-0.75,0.37,0.33,0.89
0.948030948638916,-0.24,0.61,0.43,0.78
0.949516773223877,0.33,0.66,-0.03,0.73
0.9523787498474121,0.66,0.52,-0.06,0.84
0.9550657272338867,0.47,0.4,0.05,0.61
0.9580438137054443,0.18,0.35,0.1,0.4
0.9742999076843262,0.17,0.17,0.08,0.25
0.9775588512420654,0.23,-0.02,0.01,0.23
0.9875869750976562,0.27,-0.06,-0.26,0.37
0.9976739883422852,0.41,-0.06,-0.8,0.9
1.0458488464355469,0.52,0.0,-1.08,1.19
1.0478949546813965,0.74,0.11,-1.27,1.47
1.0494489669799805,0.93,0.3,-1.27,1.6
1.0521938800811768,1.28,0.55,-0.66,1.54
1.0549077987670898,1.81,0.6,-0.15,1.91
1.0570869445800781,2.34,0.32,-0.3,2.38
1.0745649337768555,2.55,-0.2,-0.21,2.56
1.0768117904663086,2.36,-0.69,0.35,2.48
1.0869317054748535,2.11,-0.91,0.31,2.31
1.0970797538757324,1.78,-0.64,-0.2,1.9
1.1497979164123535,1.37,-0.27,-0.14,1.4
1.151810646057129,0.75,-0.14,-0.34,0.83
1.1534008979797363,-0.06,-0.16,-1.18,1.19
1.1549139022827148,-1.01,-0.27,-1.5,1.82
1.173081874847412,-1.91,-0.45,-1.32,2.36
1.174710750579834,-2.22,-0.47,-1.57,2.75
1.177299976348877,-2.11,-0.16,-1.32,2.49
1.1799838542938232,-2.34,0.22,-0.62,2.43
1.18617582321167,-2.54,0.56,-0.24,2.61
1.1963386535644531,-2.22,0.84,0.21,2.38
1.2493939399719238,-1.78,0.81,0.51,2.02
1.2513747215270996,-1.26,0.42,0.38,1.38
1.2530436515808105,-0.46,-0.05,0.46,0.65
1.2546029090881348,-0.04,-0.3,0.43,0.52
1.2574148178100586,-0.04,-0.24,0.33,0.41
1.2598676681518555,-0.02,0.02,0.32,0.32
1.2654919624328613,-0.33,0.15,0.36,0.51
1.2756128311157227,-0.88,0.1,0.42,0.98
1.2854487895965576,-1.37,0.08,0.38,1.42
1.2957677841186523,-1.8,0.14,0.38,1.84
1.3485867977142334,-1.94,0.05,0.45,1.99
1.3505988121032715,-1.71,-0.12,0.63,1.82
1.3522398471832275,-1.43,-0.18,0.58,1.55
1.3550777435302734,-1.08,-0.1,0.43,1.16
1.3566198348999023,-0.46,0.01,0.37,0.59
1.3739557266235352,0.22,0.05,-0.04,0.22
1.3755757808685303,0.79,0.07,-0.39,0.88
1.378300666809082,1.02,0.18,-0.21,1.05
1.3847668170928955,0.91,0.24,0.1,0.94
1.3949558734893799,0.4,0.1,-0.4,0.57
1.448286771774292,-0.02,-0.43,-0.82,0.92
1.4502487182617188,0.02,-1.19,-0.4,1.25
1.4518556594848633,0.14,-1.7,-0.15,1.71
1.4550437927246094,-0.23,-1.63,-0.39,1.69
1.4565749168395996,-1.09,-1.27,-0.71,1.81
1.4751529693603516,-1.84,-1.08,-0.68,2.23
1.4767658710479736,-2.19,-1.14,-0.48,2.51
1.4797439575195312,-2.34,-1.43,-0.17,2.74
1.4840288162231445,-2.35,-1.8,0.09,2.96
1.4943318367004395,-2.35,-2.17,0.36,3.21
1.5040826797485352,-2.66,-2.57,0.8,3.78
1.5528197288513184,-3.15,-3.24,1.29,4.69
1.554654836654663,-3.66,-4.21,2.24,6.01
1.5562398433685303,-3.89,-5.1,2.77,6.98
1.5590486526489258,-4.26,-5.7,3.44,7.9
1.561720848083496,-5.1,-6.33,3.61,8.89
1.5644538402557373,-5.8,-7.12,3.68,9.89
1.573659896850586,-6.41,-7.97,5.07,11.41
1.5837807655334473,-6.97,-8.69,4.97,12.19
1.5941557884216309,-7.52,-8.91,4.09,12.35
1.6037158966064453,-7.71,-8.38,3.64,11.95
1.6523747444152832,-6.59,-7.13,2.18,9.95
1.6541976928710938,-4.82,-5.52,0.27,7.33
1.6557307243347168,-3.79,-3.72,-1.44,5.5
1.6587238311767578,-3.05,-1.93,-1.44,3.88
1.6609327793121338,-1.98,-0.55,-2.56,3.28
1.6636147499084473,-1.54,0.62,-1.79,2.44
1.672996997833252,-2.06,1.47,0.85,2.66
1.682985782623291,-2.45,1.95,1.13,3.32
1.6928448677062988,-1.5,3.12,-0.14,3.46
1.7028627395629883,-1.09,4.76,1.13,5.01
1.7518887519836426,-2.38,5.36,2.34,6.31
1.7537426948547363,-4.37,4.52,2.28,6.68
1.756281852722168,-5.53,3.91,2.75,7.3
1.7590198516845703,-5.83,4.13,3.16,7.81
1.761706829071045,-5.79,4.42,3.64,8.14
1.7643468379974365,-5.78,4.2,3.83,8.1
1.7724637985229492,-5.52,3.72,3.68,7.6
1.7824468612670898,-4.78,3.23,3.57,6.78
1.7925267219543457,-3.59,2.75,3.3,5.59
1.802210807800293,-2.35,2.08,2.61,4.08
1.850538730621338,-1.2,1.23,1.95,2.59
1.8526358604431152,0.03,0.4,1.52,1.57
1.8541607856750488,1.1,-0.23,0.84,1.4
1.8556900024414062,1.8,-0.68,0.23,1.93
1.8740448951721191,2.47,-1.01,-0.31,2.68
1.8757798671722412,3.3,-1.38,-1.04,3.72
1.878377914428711,4.11,-1.72,-1.76,4.79
1.8816757202148438,4.65,-1.98,-2.17,5.5
1.891467809677124,4.96,-2.23,-2.26,5.88
1.9016468524932861,5.15,-2.08,-2.23,5.98
1.9568519592285156,5.12,-1.9,-2.74,6.1
1.9588267803192139,4.8,-1.83,-3.09,5.99
1.9603266716003418,4.69,-1.78,-2.9,5.79
1.9632139205932617,5.11,-1.95,-2.64,6.07
1.9659168720245361,5.5,-1.94,-2.79,6.46
1.96856689453125,5.85,-1.56,-3.32,6.9
1.9717037677764893,6.1,-1.17,-3.48,7.11
1.9807257652282715,6.26,-1.04,-3.24,7.12
1.9912748336791992,5.91,-0.84,-4.03,7.2
2.0008327960968018,4.79,-0.36,-4.26,6.42
2.0546789169311523,4.73,-0.24,-3.33,5.78
2.0566329956054688,6.42,-0.39,-2.14,6.77
2.0584359169006348,7.76,-0.37,-1.0,7.83
2.0611257553100586,7.91,-0.9,-1.02,8.02
2.063851833343506,7.15,-1.9,-0.06,7.39
2.0664877891540527,4.09,-3.06,1.25,5.25
2.0701208114624023,-1.92,-4.25,1.17,4.8
2.0804686546325684,-5.73,-5.11,0.35,7.68
2.090183734893799,-3.45,-4.72,0.8,5.9
2.1000289916992188,1.04,-2.6,1.11,3.01
2.1550028324127197,2.63,0.24,-1.53,3.05
2.1571078300476074,2.66,3.15,-3.87,5.65
2.1585898399353027,3.75,4.68,-4.69,7.61
2.1613616943359375,5.35,4.43,-2.96,7.55
2.1640048027038574,6.03,2.3,-0.9,6.51
2.16666579246521,4.76,0.02,-0.59,4.79
2.1697378158569336,2.41,-0.7,-1.23,2.79
2.1796226501464844,0.57,-0.54,0.42,0.89
2.189330816268921,0.08,-0.34,1.48,1.52
2.1996347904205322,0.29,-0.14,0.87,0.92
2.2534117698669434,0.19,0.15,0.71,0.75
2.255354881286621,-0.27,0.15,0.45,0.54
2.256823778152466,-0.97,-0.08,-0.39,1.04
2.2598278522491455,-1.43,-0.41,-0.46,1.55
2.262537956237793,-1.62,-0.51,-0.48,1.76
2.26519775390625,-1.61,-0.22,-0.84,1.82
2.2686829566955566,-1.47,0.12,-0.88,1.71
2.279047966003418,-1.52,0.31,-0.91,1.79
2.2888927459716797,-1.59,0.28,-1.27,2.05
2.298794746398926,-1.17,0.11,-1.06,1.58
2.3086328506469727,-0.37,-0.06,-0.24,0.44
2.3578758239746094,0.19,-0.15,0.37,0.44
2.3594727516174316,0.02,-0.14,0.32,0.34
2.3610267639160156,-0.46,-0.2,-0.02,0.5
2.3634986877441406,-0.48,-0.31,0.28,0.63
2.3659777641296387,-0.23,-0.13,0.32,0.41
2.3686389923095703,0.13,0.32,0.19,0.39
2.378072738647461,0.56,0.69,0.59,1.06
2.3880157470703125,0.8,0.73,0.66,1.26
2.398263931274414,0.67,0.79,0.22,1.05
2.4081828594207764,0.36,1.05,0.27,1.14
2.4579906463623047,0.08,1.16,0.5,1.26
2.459772825241089,-0.28,0.97,0.91,1.35
2.461298942565918,-1.06,0.59,0.94,1.53
2.464169979095459,-2.25,0.15,1.0,2.46
2.4668078422546387,-3.18,-0.32,0.38,3.21
2.4694647789001465,-3.2,-0.69,0.39,3.29
2.4773669242858887,-2.4,-0.72,0.69,2.59
2.487273693084717,-1.48,-0.3,0.5,1.59
2.4976677894592285,-0.91,0.31,0.59,1.12
2.507504940032959,-0.74,0.76,0.32,1.1
2.5561587810516357,-0.72,1.09,-0.13,1.31
2.5579466819763184,-0.59,1.42,0.04,1.53
2.5594968795776367,-0.49,1.52,-0.07,1.59
2.562408924102783,-0.48,1.04,-0.17,1.15
2.5650696754455566,-0.65,0.09,-0.26,0.7
2.567643880844116,-0.93,-0.76,-0.58,1.33
2.5767178535461426,-0.84,-1.01,-0.53,1.41
2.5868048667907715,-0.4,-0.54,-0.48,0.82
2.596914768218994,0.22,0.22,-0.49,0.58
2.6065869331359863,0.74,0.63,-0.16,0.98
2.6560349464416504,0.82,0.33,-0.05,0.88
2.6582536697387695,0.58,-0.03,-0.3,0.65
2.6597819328308105,0.43,-0.18,-0.02,0.46
2.6625866889953613,0.18,-0.54,0.13,0.58
2.665050983428955,-0.27,-1.01,-0.05,1.04
2.6676628589630127,-0.46,-1.05,-0.97,1.5
2.6760549545288086,-0.19,-0.98,-1.71,1.98
2.686309814453125,-0.11,-2.02,-1.69,2.63
2.696291923522949,-0.49,-4.13,-2.26,4.73
2.7059597969055176,-0.67,-6.87,-2.06,7.2
2.7617058753967285,-0.33,-10.59,-0.49,10.6
2.763537883758545,0.01,-14.03,-0.05,14.03
2.7651357650756836,-0.31,-15.33,-0.92,15.36
2.767965793609619,-2.05,-14.94,-1.25,15.13
2.770636796951294,-4.16,-14.89,-0.07,15.46
2.7721188068389893,-4.81,-14.08,1.17,14.92
2.775331974029541,-5.02,-10.71,1.26,11.89
2.785449981689453,-5.79,-6.84,1.44,9.07
2.795369863510132,-6.23,-4.09,3.05,8.05
2.8052639961242676,-5.87,-1.68,2.84,6.73
2.860067844390869,-4.27,0.79,2.26,4.89
2.8619558811187744,-2.55,3.68,3.49,5.67
2.863555908203125,-2.48,6.94,4.07,8.41
2.8664536476135254,-4.8,10.27,3.73,11.93
2.869144916534424,-6.79,13.48,5.01,15.9
2.872264862060547,-7.82,14.64,3.68,17.0
2.8746578693389893,-9.63,11.16,3.88,15.24
2.8926186561584473,-8.86,5.58,5.6,11.87
2.894763946533203,-7.08,2.3,5.27,9.12
2.9045567512512207,-4.93,0.96,3.8,6.29
2.959808826446533,-2.41,0.91,2.98,3.93
2.961577892303467,-0.82,1.64,2.48,3.08
2.963115692138672,0.22,2.67,1.4,3.02
2.966174840927124,1.96,4.04,-0.13,4.49
2.9688477516174316,4.66,5.55,-0.94,7.3
2.971385955810547,7.0,6.96,-1.25,9.95
2.974313735961914,6.51,7.92,-1.62,10.37
2.984097957611084,4.08,7.64,-1.22,8.74
2.994346857070923,2.49,6.63,-1.12,7.17
3.003748893737793,2.03,5.14,-1.53,5.73
3.0591838359832764,2.41,3.36,-1.83,4.52
3.0609617233276367,2.97,1.75,-2.53,4.27
3.0632917881011963,3.82,0.48,-3.74,5.36
3.06600284576416,5.0,-0.43,-4.41,6.68
3.068661689758301,6.29,-0.95,-4.28,7.66
3.071211814880371,7.19,-0.93,-3.88,8.22
3.0733957290649414,7.46,-0.35,-4.75,8.85
3.0834708213806152,7.18,0.08,-4.98,8.73
3.0936357975006104,6.48,-0.02,-3.42,7.32
3.1033639907836914,5.45,-0.43,-3.01,6.24
3.1134488582611084,4.44,-0.89,-3.48,5.71
3.163094997406006,3.02,-1.57,-2.2,4.05
3.1651477813720703,2.09,-3.18,-1.61,4.13
3.1667418479919434,1.57,-4.66,-2.93,5.72
3.169604778289795,0.75,-4.59,-2.67,5.36
3.172518730163574,0.13,-3.8,-1.97,4.28
3.1740548610687256,0.04,-3.25,-1.9,3.76
3.19266676902771,0.38,-2.75,-1.87,3.34
3.1942598819732666,1.44,-2.44,-1.46,3.18
3.2024128437042236,2.17,-2.12,-1.68,3.46
3.212772846221924,2.54,-1.99,-1.47,3.54
3.2623748779296875,2.5,-2.17,-0.91,3.43
3.2643446922302246,2.27,-2.54,-0.86,3.51
3.2659828662872314,2.04,-2.84,-0.65,3.55
3.2687277793884277,1.47,-3.26,-0.37,3.59
3.2712459564208984,0.73,-3.57,0.2,3.64
3.2727227210998535,-0.11,-3.51,0.25,3.52
3.2818217277526855,-1.13,-3.26,0.49,3.48
3.2922558784484863,-1.65,-3.19,0.94,3.71
3.3020758628845215,-1.49,-2.97,1.07,3.49
3.3120617866516113,-1.12,-2.37,-0.56,2.68
3.3616867065429688,-2.65,-1.84,-2.16,3.88
3.3635077476501465,-3.74,-1.92,-1.59,4.49
3.365083694458008,-3.71,-2.12,0.18,4.27
3.3679866790771484,-2.18,-2.22,2.58,4.04
3.370724678039551,-0.56,-1.73,2.23,2.87
3.3731956481933594,0.14,-0.63,1.06,1.24
3.381476879119873,0.24,0.15,0.71,0.76
3.392352819442749,-0.3,-0.25,0.31,0.49
3.4013588428497314,-1.04,-1.72,1.25,2.36
3.4121956825256348,-1.95,-3.4,4.4,5.89
3.4619507789611816,-1.85,-5.11,4.93,7.33
3.4640448093414307,-2.31,-5.5,1.99,6.28
3.4655418395996094,-3.26,-3.75,2.04,5.37
3.468508720397949,-3.06,-1.32,1.72,3.75
3.471090793609619,-2.51,0.56,0.41,2.6
3.472526788711548,-1.52,1.63,0.44,2.27
3.480616807937622,-0.77,1.61,-0.67,1.9
3.490719795227051,-0.36,0.83,-2.26,2.43
3.5006656646728516,0.3,-0.15,-1.65,1.68
3.5105907917022705,0.58,-0.84,-0.36,1.08
3.5656487941741943,-0.09,-0.75,-0.44,0.87
3.567445755004883,-0.8,-0.36,-0.9,1.25
3.5690269470214844,-0.78,-0.2,-0.4,0.89
3.5719399452209473,-0.41,-0.21,-0.3,0.54
3.573438882827759,0.01,-0.14,-0.32,0.34
3.576206684112549,0.4,0.12,-0.13,0.43
3.579845905303955,0.67,0.28,-0.18,0.74
3.5901567935943604,0.61,0.3,-0.38,0.77
3.599979877471924,0.24,0.21,-0.22,0.38
3.609773874282837,-0.16,-0.03,-0.15,0.22
3.6658198833465576,-0.59,-0.03,-0.24,0.63
3.6675209999084473,-0.82,0.37,-0.17,0.91
3.6690707206726074,-0.78,0.87,-0.05,1.16
3.6718249320983887,-0.59,1.08,0.26,1.25
3.6734538078308105,-0.62,0.94,0.38,1.18
3.6765007972717285,-0.99,0.72,0.41,1.29
3.6791839599609375,-1.41,0.63,0.74,1.71
3.689239978790283,-1.92,0.39,1.19,2.29
3.6992218494415283,-2.57,0.08,1.3,2.88
3.709537982940674,-3.04,-0.05,1.09,3.22
3.7661209106445312,-3.07,0.02,1.16,3.28
3.7679498195648193,-2.87,-0.07,1.34,3.16
3.7695648670196533,-2.64,-0.21,0.68,2.73
3.7734689712524414,-2.13,0.08,0.12,2.13
3.774986743927002,-1.12,0.8,0.09,1.37
3.792043685913086,0.04,1.63,-0.23,1.64
3.7937707901000977,1.05,2.44,-0.5,2.7
3.796444892883301,1.59,3.12,-0.84,3.6
3.799048900604248,1.65,3.47,-0.84,3.93
3.8083817958831787,1.34,3.19,-1.02,3.6
3.865419864654541,0.74,1.81,-0.95,2.17
3.8672168254852295,0.04,-0.66,-0.58,0.87
3.868856906890869,-0.26,-2.9,-1.14,3.12
3.871795654296875,0.3,-3.96,-0.65,4.02
3.8732988834381104,1.35,-3.21,0.16,3.48
3.8763279914855957,2.04,-1.08,0.05,2.3
3.8790149688720703,2.08,0.73,-0.24,2.21
3.8876938819885254,1.71,1.63,-0.18,2.36
3.8980908393859863,0.94,1.73,-0.13,1.97
3.907784938812256,0.37,0.95,-0.01,1.01
3.917820930480957,0.32,-0.45,0.03,0.55
3.9694137573242188,0.21,-2.05,0.17,2.06
3.9714488983154297,-0.46,-3.85,-0.02,3.87
3.973040819168091,-1.36,-5.2,-0.51,5.39
3.9746057987213135,-1.95,-5.95,-1.07,6.35
3.9773759841918945,-2.17,-6.77,-1.45,7.25
3.9799978733062744,-2.26,-8.65,-1.13,9.01
3.9873757362365723,-2.82,-11.12,-0.61,11.48
3.9975388050079346,-4.23,-13.09,-0.99,13.79
4.007417678833008,-5.6,-13.79,-0.96,14.91
4.0172438621521,-5.64,-12.23,-0.04,13.46
4.066617965698242,-5.29,-9.43,0.87,10.84
4.068666934967041,-5.8,-6.42,0.51,8.66
4.070290803909302,-6.38,-3.37,0.94,7.27
4.073222875595093,-6.05,-0.94,1.82,6.38
4.0747997760772705,-3.69,1.39,3.48,5.25
4.091209888458252,-0.69,4.25,5.74,7.17
4.092848777770996,-0.96,7.73,5.93,9.78
4.096706867218018,-2.68,11.44,4.01,12.41
4.106343746185303,-5.15,14.56,1.47,15.51
4.116614818572998,-9.2,14.36,3.07,17.32
4.165734767913818,-11.13,9.74,5.32,15.71
4.1677117347717285,-10.58,5.06,5.31,12.87
4.169270992279053,-8.75,2.3,4.65,10.17
4.172138690948486,-6.17,1.04,4.24,7.55
4.173628807067871,-3.4,0.85,3.89,5.23
4.176424980163574,-0.89,1.71,3.15,3.69
4.185896873474121,1.33,2.54,1.73,3.34
4.195745944976807,3.22,3.08,0.52,4.48
4.205660820007324,4.45,3.46,-0.93,5.71
4.215951919555664,4.83,3.69,-1.87,6.35
4.264971733093262,4.63,3.69,-2.21,6.31
4.266838788986206,4.28,3.46,-2.58,6.07
4.268438816070557,4.09,3.01,-2.46,5.64
4.271334648132324,3.99,2.47,-2.47,5.3
4.273961782455444,3.88,2.07,-3.5,5.62
4.275752782821655,4.01,1.92,-4.45,6.29
4.291930675506592,4.62,1.54,-4.32,6.5
4.294970989227295,5.19,0.95,-3.84,6.52
4.305027961730957,5.34,0.22,-3.63,6.46
4.315485954284668,5.39,-0.43,-3.93,6.68
4.371116876602173,5.3,-0.86,-4.21,6.82
4.373428821563721,5.14,-1.06,-3.92,6.55
4.375858783721924,5.21,-1.14,-3.77,6.53
4.3783159255981445,5.2,-1.28,-3.6,6.45
4.380717754364014,4.78,-1.24,-3.42,6.0
4.382958889007568,4.03,-1.19,-2.68,4.98
4.385312795639038,3.23,-1.23,-3.11,4.64
4.395073890686035,2.34,-1.75,-3.1,4.26
4.404490947723389,1.65,-2.94,-2.8,4.38
4.414502859115601,0.86,-3.92,-2.58,4.77
4.46905779838562,0.02,-4.16,-2.46,4.83
4.471100807189941,-0.35,-3.9,-2.09,4.43
4.472688674926758,0.11,-3.61,-1.73,4.0
4.47429084777832,0.92,-3.15,-1.45,3.58
4.492876768112183,1.33,-2.54,-1.48,3.22
4.494509696960449,1.55,-1.89,-1.07,2.66
4.497475862503052,1.56,-1.64,-0.58,2.33
4.500114917755127,1.13,-2.01,-0.65,2.39
4.503830909729004,0.96,-2.39,-0.72,2.67
4.513804912567139,0.8,-2.57,-0.11,2.69
4.568378925323486,0.61,-2.61,-0.01,2.68
4.570397853851318,0.32,-2.4,0.12,2.42
4.571995735168457,0.11,-2.22,0.17,2.22
4.573554992675781,0.52,-2.21,-0.21,2.28
4.5936667919158936,0.18,-1.84,-1.89,2.64
4.595380783081055,-1.84,-1.52,-1.96,3.08
4.598304748535156,-2.43,-1.83,-0.19,3.04
4.600899696350098,-1.03,-2.36,1.86,3.17
4.603634834289551,0.72,-2.18,1.77,2.89
4.613144874572754,0.99,-1.36,0.38,1.72
4.6682538986206055,0.04,-0.68,0.81,1.05
4.670295715332031,-1.48,-0.84,2.82,3.29
4.671925783157349,-3.0,-1.79,2.54,4.31
4.673565864562988,-5.06,-2.27,0.9,5.61
4.693360805511475,-8.04,-3.11,2.96,9.11
4.695121765136719,-7.96,-5.51,2.84,10.08
4.697981834411621,-5.16,-7.46,2.11,9.31
4.700473785400391,-1.63,-6.52,3.78,7.71
4.702945709228516,0.56,-3.17,2.96,4.37
4.712289810180664,1.05,0.33,-0.75,1.33
4.722195863723755,1.29,3.38,-2.43,4.35
4.774421691894531,1.61,4.91,-2.27,5.64
4.776144981384277,1.7,4.48,-2.3,5.31
4.777728796005249,1.43,2.68,-1.94,3.6
4.780542850494385,0.52,1.01,-1.47,1.85
4.783123970031738,-0.73,-0.2,-1.25,1.46
4.785539865493774,-0.99,-1.41,-0.82,1.9
4.7927398681640625,-0.37,-2.66,0.78,2.79
4.801694869995117,-0.15,-3.19,1.62,3.58
4.81175684928894,-0.51,-2.35,0.91,2.57
4.821366786956787,-0.8,-1.03,0.36,1.35
4.874189853668213,-0.76,0.06,0.09,0.76
4.87605094909668,-0.39,0.69,-0.46,0.91
4.878306865692139,-0.03,0.92,-1.06,1.4
4.880703926086426,0.02,1.01,-1.12,1.5
4.8831939697265625,-0.13,0.84,-0.99,1.3
4.8857269287109375,-0.39,0.51,-0.79,1.01
4.891178846359253,-0.68,0.2,-0.16,0.72
4.901454925537109,-1.05,-0.02,0.58,1.19
4.911815881729126,-1.5,-0.08,0.4,1.55
4.920962810516357,-1.8,0.14,0.38,1.84
4.972634792327881,-1.79,0.46,1.01,2.1
4.974864959716797,-1.69,0.71,0.68,1.95
4.976522922515869,-1.49,1.05,0.49,1.88
4.979252815246582,-1.23,1.3,0.9,2.0
4.981927871704102,-1.18,1.1,0.85,1.82
4.984460830688477,-1.42,0.65,0.44,1.62
4.990429878234863,-1.55,0.38,-0.26,1.61
5.000523805618286,-1.17,0.34,0.26,1.24
5.010325908660889,-0.69,0.3,0.7,1.02
5.0204548835754395,-0.3,0.48,0.21,0.6
5.0734477043151855,0.22,1.05,0.34,1.12
5.076222896575928,0.68,1.59,0.93,1.96
5.077772855758667,0.53,1.73,0.52,1.88
5.080597877502441,-0.09,1.22,-0.16,1.23
5.083120822906494,-0.75,0.21,-0.37,0.86
5.085687875747681,-0.93,-0.47,-1.16,1.55
5.089502811431885,-0.1,-0.32,-0.96,1.01
5.099668979644775,0.83,0.04,-0.36,0.9
5.109600782394409,0.8,0.26,-1.13,1.4
5.119653701782227,0.51,0.6,-1.67,1.84
5.175565719604492,0.55,1.0,-1.15,1.62
5.177520751953125,0.68,1.03,-0.62,1.38
5.1791157722473145,0.47,0.22,-0.24,0.57
5.193203926086426,0.03,-0.93,-0.63,1.12
5.194847822189331,-0.26,-1.65,-0.7,1.81
5.197558879852295,-0.25,-1.64,-0.26,1.67
5.200443744659424,0.06,-0.8,-0.34,0.87
5.203114986419678,0.53,0.3,-0.3,0.67
5.208749771118164,0.79,0.91,-0.02,1.2
5.218995809555054,0.52,0.62,-0.29,0.85
5.274568796157837,-0.06,-0.47,-0.55,0.72
5.276544809341431,-0.18,-1.31,-0.59,1.44
5.278037786483765,0.32,-1.4,-0.7,1.59
5.29501485824585,0.49,-1.62,-0.69,1.82
5.296703815460205,-0.04,-2.5,-0.9,2.65
5.299766778945923,-0.48,-3.42,-1.0,3.59
5.302490711212158,-0.59,-4.38,-0.42,4.43
5.305240869522095,-0.79,-5.37,-0.95,5.51
5.308518886566162,-1.0,-6.71,-1.0,6.85
5.31831693649292,-1.64,-8.71,-0.35,8.86
5.374071836471558,-2.53,-10.14,-1.35,10.53
5.375858783721924,-3.09,-10.5,-0.87,10.97
5.377492904663086,-3.64,-9.52,0.14,10.19
5.380281925201416,-3.95,-7.33,-0.6,8.34
5.382816791534424,-4.12,-4.88,0.69,6.42
5.385520935058594,-4.38,-3.21,1.44,5.61
5.388080835342407,-4.35,-2.0,1.51,5.02
5.397859811782837,-2.53,-0.71,1.53,3.04
5.407435894012451,-0.86,0.82,2.65,2.9
5.41757869720459,-1.43,2.69,3.8,4.87
5.473465919494629,-3.18,4.48,4.32,6.98
5.47582483291626,-4.38,5.92,5.08,8.94
5.477357864379883,-4.62,7.05,3.97,9.31
5.48044490814209,-5.17,7.73,2.29,9.57
5.483073711395264,-6.96,6.89,2.98,10.23
5.485700845718384,-8.16,4.59,3.52,10.0
5.488256931304932,-7.87,2.61,3.07,8.84
5.496832847595215,-6.09,1.71,2.59,6.83
5.506731986999512,-3.79,1.61,2.14,4.64
5.5168328285217285,-1.89,1.66,1.69,3.03
5.526727676391602,-0.31,1.71,0.75,1.89
5.5773138999938965,1.06,1.85,0.06,2.13
5.579105854034424,2.09,1.96,0.02,2.86
5.5806169509887695,2.51,1.96,0.05,3.18
5.583228826522827,2.4,2.07,-0.21,3.17
5.585949897766113,2.01,2.2,-0.51,3.02
5.588669776916504,1.45,2.38,-0.88,2.92
5.596402883529663,0.73,2.65,-1.22,3.0
5.606161832809448,0.3,2.81,-1.57,3.23
5.616397857666016,0.73,2.85,-2.07,3.59
5.626028776168823,1.99,2.91,-2.63,4.39
5.677114963531494,3.15,2.86,-3.22,5.33
5.678901672363281,3.54,2.52,-3.55,5.61
5.680466651916504,3.66,1.8,-3.5,5.37
5.683435916900635,3.95,0.92,-3.5,5.35
5.685730934143066,4.22,0.29,-3.29,5.35
5.688295841217041,4.27,-0.03,-2.91,5.16
5.695636749267578,4.0,-0.21,-2.71,4.83
5.705229759216309,3.54,-0.11,-2.72,4.46
5.715670824050903,3.01,0.16,-2.88,4.16
5.725302696228027,2.6,0.26,-2.57,3.66
5.7766947746276855,2.51,0.38,-2.67,3.68
5.778444766998291,2.58,0.27,-2.76,3.78
5.780019760131836,1.86,0.4,-2.32,3.0
5.783138751983643,0.98,0.09,-2.2,2.41
5.78581976890564,0.46,-0.49,-2.21,2.3
5.788390874862671,0.42,-0.97,-2.05,2.3
5.794789791107178,0.77,-1.3,-1.75,2.31
5.805020809173584,1.12,-1.58,-1.15,2.25
5.815067768096924,1.39,-1.74,-1.2,2.52
5.824615955352783,1.56,-1.75,-1.58,2.82
5.876027822494507,1.87,-1.75,-1.5,2.96
5.877656936645508,2.2,-1.75,-1.23,3.06
5.879097938537598,2.41,-1.59,-1.07,3.07
5.881939888000488,2.49,-1.5,-0.84,3.02
5.884512901306152,2.31,-1.35,-0.6,2.74
5.887168884277344,1.82,-1.03,-0.49,2.14
5.894246816635132,1.33,-1.0,-0.41,1.71
5.904225826263428,0.9,-1.17,-0.14,1.48
5.914449691772461,0.39,-1.32,0.15,1.38
5.9239277839660645,0.14,-1.73,0.51,1.8
5.979528903961182,-0.03,-2.23,0.69,2.33
5.98128080368042,-0.11,-2.51,0.74,2.61
5.982862949371338,0.09,-2.56,0.91,2.71
5.985747814178467,0.42,-2.26,0.83,2.44
5.98832368850708,0.54,-1.8,0.57,1.96
5.990972995758057,0.44,-1.57,0.48,1.69
5.993443965911865,0.24,-1.5,0.6,1.63
6.009722709655762,-0.03,-1.6,0.32,1.63
6.013271808624268,-0.26,-1.88,0.16,1.9
6.023217678070068,-0.32,-2.15,0.33,2.19
6.079486846923828,-0.25,-2.37,0.46,2.42
6.081310749053955,-0.17,-2.31,0.42,2.35
6.082866668701172,-0.14,-2.03,0.54,2.1
6.085786819458008,0.02,-1.77,0.21,1.78
6.088274002075195,-0.75,-1.58,-0.68,1.87
6.0907769203186035,-2.89,-1.65,-1.24,3.55
6.092882871627808,-5.47,-1.79,-3.04,6.5
6.1097328662872314,-8.3,-2.28,-0.11,8.6
6.112563848495483,-6.47,-4.42,3.76,8.69
6.1225807666778564,-2.13,-6.62,4.55,8.31
6.179666996002197,0.51,-6.48,3.48,7.37
6.181466817855835,1.24,-4.2,2.5,5.04
6.183058738708496,1.11,-1.63,1.47,2.45
6.185876846313477,1.37,0.59,0.62,1.61
6.1886186599731445,1.85,2.41,-0.13,3.04
6.191239833831787,2.0,3.75,-0.2,4.25
6.192876815795898,1.6,4.55,-0.29,4.83
6.2098469734191895,0.93,4.5,-1.43,4.81
6.211970806121826,0.6,3.63,-2.19,4.28
6.222028732299805,0.37,2.28,-1.94,3.01
6.279425859451294,0.02,0.56,-0.9,1.06
6.28121280670166,-0.05,-1.33,-0.18,1.34
6.283407688140869,0.38,-3.0,0.48,3.06
6.286111831665039,0.79,-3.97,0.98,4.16
6.288789749145508,0.51,-3.64,0.88,3.77
6.291350841522217,-0.26,-2.15,0.72,2.28
6.293024778366089,-1.08,-0.48,0.95,1.51
6.311802864074707,-1.73,0.81,0.84,2.08
6.313405990600586,-2.13,1.62,0.08,2.67
6.321168899536133,-2.06,2.02,-1.09,3.08
6.331090927124023,-1.5,1.93,-1.71,2.98
6.38402795791626,-0.64,1.21,-1.57,2.08
6.386183738708496,0.09,0.15,-1.13,1.14
6.387702941894531,0.41,-0.75,-0.66,1.07
6.390912771224976,0.06,-1.1,-0.39,1.16
6.392437934875488,-0.38,-0.93,-0.08,1.0
6.410851955413818,-0.56,-0.49,0.23,0.77
6.4124627113342285,-0.85,0.02,0.51,0.99
6.414941787719727,-0.87,0.42,0.78,1.24
6.420501708984375,-0.77,0.58,0.7,1.19
6.430707931518555,-0.99,0.64,0.61,1.32
6.482847690582275,-1.3,0.68,0.63,1.59
6.484825849533081,-1.61,0.61,0.65,1.84
6.486387729644775,-1.82,0.46,0.58,1.96
6.489381790161133,-1.87,0.4,0.39,1.95
6.4908599853515625,-1.62,0.38,0.45,1.72
6.4940266609191895,-1.48,0.42,0.75,1.71
6.499928951263428,-1.34,0.58,0.64,1.59
6.510132789611816,-0.91,0.77,0.41,1.26
6.520143985748291,-0.43,0.77,0.36,0.95
6.530028820037842,-0.1,0.6,0.33,0.69
6.581569671630859,0.13,0.32,0.49,0.59
6.583600997924805,0.03,0.01,0.05,0.05
6.5851569175720215,-0.25,-0.24,-0.42,0.54
6.588033676147461,-0.26,-0.41,-0.34,0.59
6.590823650360107,-0.42,-0.49,-0.4,0.75
6.592320919036865,-0.57,-0.43,-0.66,0.97
6.611173868179321,-0.4,-0.01,-1.01,1.08
6.612886905670166,-0.21,0.61,-1.07,1.24
6.6190667152404785,-0.16,0.93,-0.96,1.34
6.629394769668579,-0.16,1.0,-1.19,1.56
6.681473731994629,0.11,1.01,-1.25,1.61
6.683281898498535,0.67,1.05,-0.81,1.48
6.685543775558472,1.16,0.96,-0.09,1.5
6.688256740570068,1.34,0.43,0.35,1.45
6.690990924835205,1.12,-0.36,0.19,1.19
6.692491769790649,0.66,-0.95,0.24,1.18
6.710383892059326,0.31,-1.25,0.14,1.29
6.712052822113037,0.16,-1.18,0.03,1.19
6.718407869338989,-0.01,-0.64,-0.01,0.64
6.728511810302734,-0.1,0.39,-0.34,0.52
6.7861058712005615,-0.11,1.21,-0.13,1.22
6.787904739379883,-0.4,1.23,-0.35,1.33
6.789475917816162,-0.55,0.75,-0.55,1.08
6.791833877563477,-0.42,0.24,-0.19,0.51
6.809823989868164,-0.25,0.19,-0.02,0.31
6.811500787734985,0.02,0.37,0.11,0.38
6.814257860183716,0.0,0.14,0.33,0.35
6.81693172454834,-0.38,-0.47,0.13,0.61
6.819615840911865,-0.64,-1.21,-0.05,1.36
6.827838897705078,-0.71,-1.98,0.06,2.1
6.885389804840088,-0.65,-2.49,-0.01,2.57
6.887214660644531,-0.67,-2.67,0.29,2.76
6.889441967010498,-1.13,-2.49,0.12,2.73
6.892288684844971,-1.21,-1.5,-0.94,2.14
6.894415855407715,-0.63,-1.07,-1.17,1.7
6.910056829452515,-0.57,-2.28,-0.66,2.44
6.911721706390381,-0.94,-4.25,-0.7,4.4
6.914302825927734,-1.15,-6.19,-0.12,6.29
6.917123794555664,-1.07,-7.82,0.03,7.89
6.927327871322632,-1.13,-8.92,0.16,8.99
6.985743999481201,-1.95,-8.62,0.71,8.86
6.987566947937012,-3.04,-6.81,0.43,7.47
6.989147663116455,-3.67,-4.79,0.05,6.03
6.991107940673828,-3.87,-2.67,0.4,4.71
6.994113922119141,-3.24,-0.78,1.27,3.56
6.996792793273926,-1.87,0.68,2.23,2.98
6.99944281578064,-1.33,1.83,3.36,4.05
7.0064897537231445,-1.42,2.66,4.26,5.21
7.016845703125,-1.59,3.56,4.84,6.21
7.0265867710113525,-2.49,4.49,3.54,6.23
7.0850629806518555,-4.29,4.77,1.33,6.55
7.086833953857422,-6.32,3.91,2.1,7.72
7.088449954986572,-7.68,2.06,3.43,8.65
7.0911736488342285,-7.32,0.26,3.51,8.12
7.092720985412598,-5.22,-0.08,2.79,5.91
7.109309673309326,-2.68,1.11,2.36,3.73
7.110965728759766,-0.78,1.97,2.34,3.15
7.113772869110107,0.08,2.14,1.61,2.67
7.116487979888916,0.3,2.0,1.05,2.27
7.125644683837891,0.36,1.71,1.27,2.16
7.136079788208008,0.55,1.57,1.25,2.08
7.189515829086304,0.71,1.85,0.7,2.1
7.191630840301514,0.42,2.34,0.49,2.42
7.193288803100586,-0.23,2.74,0.43,2.78
7.1959388256073,-0.95,2.91,0.07,3.06
7.198579788208008,-1.64,2.85,-0.44,3.31
7.201345920562744,-2.02,2.68,-0.94,3.48
7.205169677734375,-1.66,2.44,-1.28,3.21
7.2153706550598145,-0.82,2.1,-1.66,2.79
7.225405693054199,0.1,1.7,-2.47,3.0
7.235368728637695,1.29,1.37,-3.22,3.72
7.288370847702026,2.8,1.24,-3.67,4.77
7.290280818939209,3.63,1.29,-3.78,5.39
7.292007923126221,3.51,1.43,-3.68,5.28
7.294647693634033,3.06,1.75,-3.53,4.98
7.296992778778076,2.59,2.18,-3.25,4.69
7.299318790435791,2.2,2.48,-2.93,4.42
7.304675817489624,1.88,2.47,-2.93,4.26
7.3149919509887695,1.47,2.08,-3.02,3.95
7.324707984924316,1.13,1.35,-3.08,3.54
7.3345489501953125,0.95,0.46,-2.96,3.14
7.389350891113281,0.83,-0.49,-2.7,2.86
7.391260862350464,0.86,-1.28,-2.47,2.91
7.393028736114502,1.07,-1.58,-2.61,3.23
7.395626783370972,1.21,-1.36,-2.83,3.36
7.3980817794799805,1.12,-1.13,-2.8,3.22
7.400388717651367,0.84,-1.03,-2.42,2.76
7.404177665710449,0.55,-1.03,-2.13,2.42
7.414146900177002,0.49,-1.1,-2.0,2.33
7.424085855484009,0.47,-1.04,-1.79,2.12
7.434175968170166,0.57,-1.07,-1.59,1.99
7.488044738769531,0.78,-1.05,-1.33,1.86
7.490096807479858,0.86,-0.91,-1.06,1.64
7.491819858551025,0.95,-0.86,-0.76,1.48
7.495246887207031,0.99,-0.8,-0.45,1.35
7.497798919677734,1.0,-0.64,-0.16,1.19
7.500220775604248,1.0,-0.51,0.01,1.12
7.503279685974121,0.84,-0.56,0.04,1.01
7.513262748718262,0.81,-0.88,0.12,1.2
7.522982835769653,0.86,-1.24,0.38,1.55
7.533337831497192,0.7,-1.47,0.66,1.75
7.592327833175659,0.43,-1.49,0.86,1.77
7.594330787658691,0.42,-1.36,1.0,1.73
7.595879793167114,0.6,-1.19,0.87,1.59
7.598752975463867,0.63,-1.17,0.71,1.5
7.6013689041137695,0.35,-1.26,0.59,1.43
7.604047775268555,0.48,-1.51,0.89,1.81
7.606568813323975,0.55,-1.77,0.7,1.98
7.612391948699951,0.59,-1.73,0.57,1.91
7.622581958770752,0.84,-1.46,0.4,1.73
7.632565975189209,1.05,-1.15,0.16,1.56
7.691504955291748,1.19,-0.85,-0.03,1.46
7.693775653839111,1.49,-0.61,-0.18,1.62
7.6952807903289795,1.77,-0.3,-0.49,1.86
7.697934865951538,0.06,-0.33,-0.94,0.99
7.7003068923950195,-4.96,-1.2,2.35,5.61
7.702847957611084,-8.96,-2.54,5.19,10.66
7.705451965332031,-6.95,-4.56,7.17,10.97
7.711763858795166,-1.38,-7.58,5.37,9.39
7.721771717071533,-1.72,-11.01,-1.77,11.28
7.732259750366211,-4.52,-13.74,-3.96,14.99
7.79028582572937,-3.81,-11.75,-2.77,12.65
7.792216777801514,-1.09,-6.05,-0.89,6.21
7.793982982635498,-0.05,-0.35,0.77,0.84
7.79665470123291,-0.5,5.12,-1.19,5.28
7.79932975769043,-1.3,9.61,-4.25,10.58
7.801894664764404,-0.07,11.06,-5.77,12.47
7.804386854171753,4.04,8.08,-4.67,10.16
7.811048984527588,7.16,3.41,-3.17,8.54
7.821355819702148,8.03,-0.57,-1.79,8.24
7.831087827682495,6.55,-3.54,0.44,7.45
7.89099383354187,3.15,-5.11,1.62,6.21
7.892991781234741,0.73,-5.37,2.11,5.81
7.894644737243652,0.72,-4.25,2.39,4.92
7.89730167388916,1.06,-2.03,1.07,2.52
7.899997711181641,0.8,0.07,-1.61,1.79
7.902637958526611,0.59,1.73,-2.58,3.16
7.905322790145874,0.51,2.62,-2.39,3.58
7.910376787185669,0.37,2.37,-2.14,3.21
7.920621871948242,0.03,1.26,-1.6,2.03
7.930141925811768,-0.3,0.1,-0.4,0.5
7.940255880355835,-0.66,-0.79,0.6,1.19
7.99533486366272,-1.21,-1.19,1.05,1.99
7.9971489906311035,-1.73,-1.05,1.36,2.43
7.998703956604004,-1.63,-0.43,1.23,2.08
8.001614809036255,-1.03,0.3,0.62,1.23
8.004318714141846,-0.56,0.71,-0.01,0.9
8.006932735443115,-0.06,0.84,-0.39,0.92
8.009598731994629,0.38,0.81,-0.57,1.06
8.019561767578125,0.61,0.55,-0.27,0.86
8.029921770095825,0.58,0.07,0.1,0.59
8.039612770080566,0.15,-0.3,0.32,0.46
8.094726800918579,-0.39,-0.42,-0.04,0.57
8.096531867980957,-0.64,-0.29,-0.2,0.73
8.098764896392822,-0.27,-0.14,0.17,0.34
8.101430892944336,-0.3,0.0,0.02,0.3
8.104087829589844,-0.71,0.08,0.01,0.71
8.106703758239746,-0.93,0.07,0.01,0.93
8.109060764312744,-0.95,0.07,-0.07,0.95
8.119158744812012,-0.85,0.04,-0.22,0.87
8.128854751586914,-0.85,-0.03,-0.14,0.86
8.139221668243408,-0.94,-0.21,-0.06,0.96
8.19456672668457,-1.11,-0.29,-0.09,1.15
8.196355819702148,-1.08,-0.23,-0.23,1.12
8.19855785369873,-0.76,-0.14,-0.32,0.83
8.201278686523438,-0.66,-0.13,-0.1,0.68
8.203736782073975,-0.78,-0.1,-0.14,0.79
8.206159830093384,-0.73,0.01,-0.28,0.78
8.208948850631714,-0.5,0.03,-0.17,0.52
8.21837568283081,-0.43,-0.08,0.07,0.44
8.228264808654785,-0.46,-0.1,0.06,0.47
8.238478660583496,-0.5,0.0,-0.15,0.52
8.293243885040283,-0.51,0.11,-0.21,0.56
8.295002937316895,-0.65,0.09,-0.21,0.68
8.297133922576904,-1.1,-0.03,-0.04,1.1
8.299710750579834,-1.27,-0.22,0.23,1.3
8.302358865737915,-1.11,-0.38,0.26,1.2
8.305020809173584,-1.25,-0.52,0.1,1.35
8.30756688117981,-1.62,-0.67,-0.03,1.75
8.317960739135742,-1.6,-0.78,-0.17,1.78
8.32811689376831,-1.4,-0.78,0.06,1.6
8.337843894958496,-1.57,-0.73,-0.54,1.81
8.398491859436035,-1.86,-0.68,-0.86,2.15
8.400501728057861,-1.36,-0.93,-0.43,1.7
8.402073860168457,-0.83,-1.33,-0.27,1.59
8.411634922027588,-0.96,-1.66,-0.02,1.91
8.413286685943604,-1.34,-1.97,0.38,2.41
8.415985822677612,-1.9,-2.22,0.69,3.0
8.418753862380981,-2.52,-2.38,0.95,3.59
8.421379804611206,-2.86,-2.38,0.7,3.78
8.42756986618042,-3.12,-2.36,0.82,3.99
8.436983823776245,-3.5,-2.6,1.45,4.59
8.497622966766357,-4.21,-3.01,1.08,5.28
8.499598979949951,-4.94,-3.55,1.32,6.22
8.501142978668213,-5.52,-4.51,2.15,7.44
8.51168179512024,-6.19,-5.87,2.52,8.89
8.513383865356445,-6.33,-7.41,2.59,10.08
8.51605486869812,-5.74,-8.86,3.95,11.27
8.518730878829956,-5.39,-9.78,3.71,11.76
8.521399974822998,-6.12,-9.65,1.69,11.55
8.52647876739502,-6.73,-8.79,1.78,11.21
8.536311864852905,-6.76,-7.23,0.4,9.9
8.596656799316406,-7.19,-5.33,-1.17,9.02
8.598658800125122,-7.65,-3.52,-0.65,8.44
8.600145816802979,-7.08,-1.82,-1.27,7.41
8.603105783462524,-5.62,0.0,-2.43,6.12
8.605833768844604,-4.11,1.58,-2.16,4.9
8.608837842941284,-2.77,2.48,-2.22,4.33
8.610398769378662,-1.55,2.99,-2.86,4.41
8.628662824630737,-0.48,3.26,-2.88,4.37
8.630292892456055,-0.3,3.32,-2.44,4.13
8.635332822799683,-1.67,3.08,-2.51,4.3
8.696010828018188,-3.88,2.65,-1.06,4.81
8.698009967803955,-5.07,2.19,0.32,5.53
8.699497699737549,-5.73,1.92,1.22,6.16
8.702240943908691,-6.29,1.69,1.43,6.66
8.704927921295166,-6.49,1.74,0.76,6.76
8.707599878311157,-6.28,1.97,-0.05,6.58
8.709075927734375,-5.86,1.91,-0.34,6.17
8.714899778366089,-5.53,1.58,-0.38,5.76
8.724896907806396,-5.38,1.23,-0.72,5.56
8.735039710998535,-5.27,1.0,-1.11,5.47
8.744948863983154,-5.16,0.79,-1.12,5.33
8.80070686340332,-5.04,0.58,-1.1,5.19
8.802443981170654,-4.97,0.44,-1.44,5.19
8.803862810134888,-4.88,0.42,-1.91,5.25
8.806793689727783,-4.65,0.38,-2.16,5.14
8.809406757354736,-4.31,0.24,-2.45,4.96
8.811034679412842,-3.95,-0.08,-3.11,5.02
8.827500820159912,-3.6,-0.56,-3.89,5.32
8.829136848449707,-3.14,-1.11,-4.62,5.69
8.83403491973877,-2.49,-1.74,-5.2,6.02
8.844093799591064,-1.88,-2.34,-5.6,6.35
8.89965295791626,-1.5,-2.86,-5.93,6.75
8.901468753814697,-1.31,-3.02,-6.28,7.09
8.903007984161377,-1.15,-2.82,-6.66,7.32
8.905860900878906,-1.1,-2.37,-6.67,7.16
8.908857822418213,-1.02,-1.84,-6.73,7.05
8.910363674163818,-0.98,-1.44,-6.72,6.94
8.927055835723877,-0.83,-1.12,-6.44,6.58
8.928751945495605,-0.48,-0.91,-6.18,6.26
8.933381795883179,-0.01,-0.81,-6.22,6.27
8.943240880966187,0.73,-0.81,-6.29,6.38
8.998447895050049,1.52,-0.83,-6.19,6.42
9.000242710113525,1.99,-0.78,-5.87,6.24
9.00173568725586,2.19,-0.63,-5.51,5.96
9.004551887512207,2.55,-0.54,-5.63,6.2
9.007185935974121,3.25,-0.55,-6.28,7.09
9.008659839630127,3.7,-0.79,-6.07,7.15
9.013186931610107,4.17,-1.19,-5.35,6.88
9.022934913635254,4.76,-1.47,-5.37,7.32
9.032773971557617,5.1,-1.23,-5.39,7.52
9.042661666870117,4.88,-0.68,-5.0,7.01
9.097847938537598,4.2,0.04,-4.6,6.22
9.09962797164917,3.8,0.65,-4.43,5.87
9.101189851760864,3.95,0.76,-4.03,5.69
9.104140758514404,4.23,0.56,-3.16,5.3
9.106823921203613,4.36,0.53,-2.97,5.3
9.109209775924683,4.49,0.7,-3.08,5.48
9.112128734588623,4.57,0.91,-3.01,5.54
9.128488779067993,4.71,0.98,-2.86,5.59
9.131953716278076,4.87,0.96,-2.89,5.74
9.142056941986084,4.81,1.19,-2.99,5.78
9.202000856399536,4.28,1.1,-2.87,5.26
9.203759670257568,3.2,0.44,-2.21,3.91
9.205336809158325,1.6,-0.05,-2.37,2.85
9.208152770996094,-1.81,-0.98,4.79,5.21
9.2096688747406,-1.15,-4.01,10.04,10.87
9.212500810623169,3.38,-7.66,6.33,10.49
9.215174674987793,6.59,-10.44,0.43,12.35
9.221720695495605,7.86,-11.35,-1.83,13.92
9.23170781135559,5.56,-7.94,-4.09,10.52
9.241626739501953,3.21,-3.4,-6.01,7.61
9.302249908447266,3.57,-0.17,-3.73,5.16
9.304059982299805,4.01,2.54,-3.55,5.92
9.306368827819824,2.71,5.0,-5.64,8.0
9.310503959655762,0.86,6.65,-5.08,8.41
9.312878847122192,0.59,5.95,-3.58,6.96
9.327756881713867,1.3,2.93,-1.83,3.69
9.329354763031006,1.55,0.05,-0.01,1.55
9.331933975219727,0.56,-1.89,1.3,2.36
9.334627866744995,-0.85,-3.12,2.17,3.89
9.34052586555481,-1.36,-3.61,2.28,4.48
9.402490854263306,-1.16,-3.09,1.17,3.5
9.404332876205444,-0.41,-1.81,-0.7,1.98
9.406563758850098,0.71,-0.53,-2.1,2.27
9.409483909606934,1.59,0.41,-2.74,3.19
9.411085844039917,2.32,0.91,-2.69,3.66
9.428900718688965,3.05,1.08,-2.17,3.89
9.430514812469482,3.49,0.95,-1.25,3.82
9.433517932891846,3.25,0.31,-0.48,3.29
9.436198711395264,2.48,-0.5,0.1,2.53
9.439917802810669,1.3,-0.98,0.5,1.7
9.501789808273315,-0.05,-0.98,0.26,1.01
9.503452777862549,-1.14,-0.73,0.14,1.36
9.505741834640503,-1.67,-0.25,-0.04,1.68
9.508176803588867,-1.87,0.36,-0.36,1.93
9.509686946868896,-1.77,0.68,-0.16,1.9
9.512605667114258,-1.31,0.75,0.22,1.52
9.515270709991455,-1.01,0.71,0.17,1.24
9.519251823425293,-1.07,0.46,0.26,1.19
9.529966831207275,-1.14,0.06,0.43,1.21
9.539423942565918,-1.1,-0.37,0.46,1.24
9.549299716949463,-0.97,-0.4,0.31,1.09
9.60615873336792,-0.94,-0.18,0.16,0.97
9.60807466506958,-0.95,0.13,0.24,0.98
9.609631776809692,-1.04,0.37,0.28,1.13
9.612634658813477,-1.23,0.36,0.2,1.29
9.615314960479736,-1.37,0.3,-0.04,1.4
9.617893695831299,-1.13,0.26,-0.27,1.19
9.620537757873535,-0.58,0.21,-0.4,0.73
9.628727912902832,-0.19,0.1,-0.51,0.55
9.638845920562744,0.18,0.04,-0.41,0.44
9.648886680603027,0.51,-0.09,-0.36,0.63
9.704855918884277,0.62,-0.27,-0.34,0.75
9.706682682037354,0.46,-0.34,-0.14,0.58
9.7081937789917,0.1,-0.28,-0.08,0.3
9.710553646087646,-0.4,-0.15,-0.12,0.44
9.729620933532715,-0.76,-0.07,0.01,0.76
9.731289863586426,-0.75,-0.13,-0.08,0.76
9.733808994293213,-0.8,-0.26,-0.08,0.84
9.736220836639404,-0.93,-0.42,-0.09,1.02
9.739030838012695,-0.89,-0.49,0.1,1.02
9.747793674468994,-0.94,-0.4,0.13,1.02
9.805240869522095,-1.4,-0.25,0.04,1.42
9.807222843170166,-1.81,-0.3,-0.19,1.84
9.80880069732666,-1.97,-0.65,-0.59,2.15
9.810407876968384,-1.75,-1.16,-0.58,2.17
9.829277992248535,-1.26,-1.49,-0.34,1.98
9.830919742584229,-1.02,-1.37,-0.43,1.76
9.833890914916992,-0.96,-1.09,-0.33,1.48
9.836570739746094,-1.19,-0.98,-0.02,1.54
9.839151859283447,-1.67,-0.98,-0.23,1.94
9.847141742706299,-2.24,-1.1,-0.03,2.49
9.903993844985962,-2.67,-1.6,0.47,3.14
9.905925750732422,-2.97,-2.22,0.62,3.75
9.907561779022217,-3.29,-2.65,0.69,4.28
9.909177780151367,-3.66,-2.93,0.94,4.78
9.912268877029419,-3.88,-3.17,0.98,5.1
9.91487169265747,-3.65,-3.37,0.85,5.04
9.917459964752197,-3.25,-3.7,1.42,5.12
9.927140712738037,-3.13,-4.21,1.92,5.58
9.936717987060547,-3.48,-4.85,1.56,6.16
9.946828842163086,-4.34,-5.59,0.9,7.13
10.009046792984009,-6.04,-6.53,0.66,8.91
10.011148929595947,-7.84,-7.43,-0.45,10.81
10.012637853622437,-8.92,-8.01,-1.49,12.08
10.01564884185791,-9.55,-7.96,-3.1,12.81
10.018202781677246,-10.23,-7.23,-3.4,12.98
10.020843982696533,-10.06,-6.26,-3.07,12.23
10.023522853851318,-9.48,-5.31,-2.71,11.19
10.026264667510986,-9.35,-4.12,-2.29,10.47
10.036182880401611,-9.03,-2.7,-2.57,9.76
10.045744895935059,-8.07,-1.21,-3.09,8.72
10.10858964920044,-6.44,0.02,-3.47,7.31
10.110591888427734,-4.16,1.01,-4.62,6.29
10.112220764160156,-1.42,1.92,-5.49,5.98
10.115084648132324,1.12,2.7,-5.28,6.03
10.117730855941772,1.91,2.58,-5.05,5.98
10.120410919189453,-1.59,1.64,-2.85,3.65
10.123047828674316,-4.88,0.92,-2.18,5.42
10.126155853271484,-6.12,1.47,-2.35,6.71
10.135455846786499,-5.88,2.37,-1.69,6.56
10.145038843154907,-5.25,2.86,-0.67,6.01
10.208455801010132,-4.52,2.89,-0.92,5.44
10.21043586730957,-3.67,2.62,-1.9,4.89
10.212111949920654,-2.94,2.33,-2.34,4.42
10.214687824249268,-2.48,1.95,-2.18,3.83
10.217321872711182,-2.24,1.36,-2.13,3.37
10.219958782196045,-2.18,0.84,-2.38,3.33
10.22274398803711,-2.34,0.6,-2.41,3.41
10.2253098487854,-2.79,0.53,-2.42,3.73
10.234419822692871,-3.4,0.65,-2.47,4.25
10.244508743286133,-3.99,0.84,-2.49,4.77
10.307899951934814,-4.62,1.29,-2.5,5.4
10.309716701507568,-5.01,1.87,-2.56,5.92
10.31131887435913,-4.99,2.15,-2.59,6.01
10.314233779907227,-4.62,2.05,-2.84,5.79
10.31681776046753,-4.02,1.6,-3.44,5.52
10.319475650787354,-3.23,0.81,-4.11,5.28
10.322110652923584,-2.34,-0.24,-4.79,5.33
10.324682712554932,-1.33,-1.45,-5.51,5.85
10.334223747253418,-0.32,-2.56,-6.05,6.57
10.344082832336426,0.39,-3.35,-6.35,7.19
10.354082822799683,0.86,-3.6,-6.6,7.56
10.41184687614441,1.01,-3.25,-6.74,7.55
10.413886785507202,0.82,-2.52,-6.51,7.02
10.415458679199219,0.69,-1.77,-6.32,6.59
10.418279647827148,0.76,-1.17,-6.21,6.36
10.42088270187378,1.02,-0.82,-5.79,5.93
10.423661708831787,1.34,-0.69,-5.55,5.75
10.426180839538574,1.73,-0.61,-5.46,5.75
10.433619976043701,2.26,-0.62,-5.39,5.87
10.445429801940918,2.73,-0.65,-5.17,5.88
10.45309591293335,2.94,-0.42,-4.99,5.8
10.51193881034851,3.07,-0.13,-4.92,5.8
10.513774871826172,3.57,-0.03,-5.02,6.16
10.515385866165161,4.44,0.01,-5.15,6.79
10.51801586151123,5.15,-0.03,-5.26,7.36
10.520650863647461,5.45,-0.22,-5.41,7.68
10.52338171005249,5.5,-0.61,-5.2,7.59
10.52630090713501,5.27,-1.12,-4.64,7.11
10.532511711120605,4.84,-1.46,-3.98,6.43
10.54606580734253,4.31,-1.49,-3.61,5.81
10.55232286453247,3.9,-1.47,-3.27,5.29
10.61106276512146,3.83,-1.24,-2.98,5.0
10.61298680305481,4.19,-0.95,-2.18,4.81
10.614481925964355,4.83,-0.72,-2.07,5.3
10.617507934570312,4.96,-0.23,-2.07,5.37
10.619674682617188,4.87,0.18,-1.91,5.23
10.622375965118408,5.36,0.15,-1.85,5.67
10.625006675720215,5.68,0.21,-1.96,6.01
10.632407665252686,5.63,0.08,-1.62,5.85
10.641799926757812,5.46,-0.17,-1.38,5.63
10.65167784690857,4.56,-0.23,-1.73,4.88
10.710100650787354,4.04,-0.63,-2.4,4.74
10.71217679977417,2.15,-0.81,-3.1,3.85
10.713741779327393,-3.32,-1.78,5.71,6.84
10.71652364730835,-4.69,-5.17,11.57,13.51
10.719207763671875,-0.21,-8.43,8.59,12.03
10.721853733062744,4.11,-9.36,4.15,11.03
10.724393844604492,5.81,-8.08,1.44,10.05
10.73116683959961,4.25,-5.15,-2.8,7.24
10.741007804870605,1.96,-2.2,-5.91,6.6
10.751452922821045,1.6,0.07,-3.94,4.25
10.815598964691162,2.42,1.93,-1.76,3.56
10.81754183769226,2.83,3.58,-3.92,6.01
10.819133758544922,2.45,4.87,-6.61,8.56
10.822121858596802,3.02,4.85,-6.27,8.48
10.8246328830719,4.95,2.79,-4.37,7.16
10.82712697982788,5.84,0.01,-1.96,6.16
10.828798770904541,5.42,-2.37,-0.01,5.91
10.844705820083618,4.06,-3.66,1.14,5.58
10.846388816833496,2.6,-3.64,2.05,4.92
10.850390911102295,1.91,-2.77,2.6,4.25
10.913648843765259,1.62,-1.5,1.88,2.89
10.915687799453735,1.14,-0.21,-0.16,1.17
10.917210817337036,0.8,0.69,-2.26,2.49
10.920183658599854,0.81,1.14,-3.17,3.46
10.92282772064209,0.84,0.98,-3.11,3.36
10.925271987915039,0.92,0.6,-2.92,3.11
10.926713943481445,1.0,0.23,-2.4,2.61
10.929823875427246,0.96,-0.17,-1.22,1.56
10.939871788024902,0.97,-0.6,-0.54,1.26
10.949924945831299,0.81,-0.91,0.12,1.22
11.01424264907837,0.26,-0.89,0.97,1.34
11.01621675491333,-0.54,-0.46,1.38,1.55
11.017826795578003,-1.33,0.12,1.52,2.02
11.020007848739624,-1.85,0.55,1.4,2.38
11.023248672485352,-2.13,0.75,1.01,2.47
11.026856899261475,-2.2,0.74,0.48,2.37
11.02839469909668,-2.0,0.66,0.0,2.1
11.031147956848145,-1.68,0.71,-0.35,1.85
11.039186954498291,-1.24,0.69,-0.18,1.43
11.049301862716675,-0.7,0.53,0.24,0.91
11.113836765289307,-0.28,0.3,0.31,0.51
11.115642786026001,-0.04,0.05,0.3,0.3
11.11787486076355,0.12,-0.1,0.32,0.35
11.12033987045288,0.03,-0.04,0.28,0.28
11.122767925262451,-0.24,0.11,0.31,0.4
11.125211715698242,-0.64,0.13,0.41,0.77
11.12665581703186,-0.86,0.13,0.6,1.05
11.129526853561401,-0.98,0.16,1.08,1.46
11.138263702392578,-0.91,0.17,1.31,1.6
11.148667812347412,-0.69,0.23,1.26,1.45
11.15815782546997,-0.37,0.36,1.2,1.3
11.218647003173828,-0.39,0.5,1.11,1.27
11.220637798309326,-0.75,0.51,1.12,1.44
11.222123861312866,-0.91,0.43,1.25,1.6
11.225050926208496,-0.94,0.35,1.18,1.54
11.227723836898804,-0.93,0.33,1.16,1.52
11.229444980621338,-0.96,0.24,1.1,1.47
11.244978904724121,-0.85,0.27,0.56,1.05
11.246582984924316,-0.37,0.5,0.18,0.64
11.249332904815674,0.06,0.51,-0.08,0.51
11.257444858551025,0.45,0.57,-0.47,0.86
11.318212985992432,0.69,0.75,-0.41,1.09
11.320177793502808,0.69,0.69,-0.43,1.06
11.321547985076904,0.42,0.59,-0.76,1.04
11.324412822723389,0.3,0.46,-0.67,0.86
11.327057838439941,0.17,0.39,-0.74,0.85
11.328544855117798,0.17,0.46,-1.0,1.11
11.345773696899414,0.37,0.5,-0.29,0.68
11.347431659698486,0.68,0.38,0.05,0.78
11.349800825119019,0.89,0.17,0.11,0.91
11.35678482055664,0.67,0.08,-0.06,0.67
11.417691707611084,0.67,0.58,-0.27,0.92
11.419533729553223,1.25,0.99,0.25,1.61
11.421083927154541,1.51,0.79,0.44,1.76
11.42396068572998,0.99,0.46,-0.25,1.11
11.42688798904419,0.36,0.36,-0.43,0.66
11.4284508228302,0.01,0.25,0.1,0.26
11.446069717407227,-0.42,-0.01,0.24,0.48
11.447723865509033,-1.01,0.0,-0.56,1.15
11.450702667236328,-0.97,0.28,-0.71,1.23
11.456077814102173,-0.28,0.18,0.04,0.33
11.516654968261719,0.01,-0.44,-0.03,0.44
11.518642902374268,-0.11,-0.6,-0.5,0.78
11.520128726959229,0.1,-0.06,-0.04,0.12
11.528958797454834,0.38,0.26,0.17,0.49
11.530638694763184,0.42,0.06,0.08,0.43
11.53325366973877,0.28,-0.28,0.08,0.4
11.535635948181152,0.35,-0.53,-0.41,0.75
11.538359880447388,0.66,-0.96,-0.38,1.22
11.545634746551514,0.5,-1.83,-0.06,1.89
11.555775880813599,-0.26,-2.23,-0.78,2.37
11.622143745422363,-0.65,-1.62,-1.33,2.19
11.624269962310791,-0.11,-0.85,-1.29,1.54
11.625770807266235,0.77,-1.09,-1.0,1.66
11.627334833145142,0.95,-2.22,-1.17,2.68
11.646369934082031,0.45,-3.45,-1.49,3.78
11.647990703582764,0.48,-4.17,-1.69,4.52
11.650892734527588,1.04,-5.39,-1.02,5.58
11.653590679168701,1.06,-7.65,-0.14,7.72
11.6563138961792,0.32,-9.69,-0.81,9.72
11.658889770507812,-0.48,-10.26,-0.87,10.3
11.721536874771118,-1.71,-10.15,0.46,10.3
11.723392963409424,-3.9,-9.22,-1.17,10.07
11.7250337600708,-4.41,-6.69,-0.42,8.02
11.726589679718018,-3.83,-4.7,0.88,6.12
11.729472875595093,-3.81,-3.55,1.17,5.33
11.732253789901733,-3.83,-2.58,1.82,4.96
11.73500680923462,-2.9,-1.32,2.14,3.83
11.73764681816101,-1.35,0.42,2.61,2.96
11.744473934173584,-0.73,2.57,3.74,4.59
11.754494667053223,-1.74,4.63,5.25,7.21
11.821319818496704,-3.02,6.51,4.94,8.71
11.823322772979736,-3.68,8.45,4.26,10.15
11.82492971420288,-3.92,10.13,3.48,11.4
11.82647180557251,-5.85,10.21,3.3,12.22
11.829556941986084,-8.03,7.51,4.74,11.97
11.83224081993103,-8.31,4.4,5.06,10.67
11.834829807281494,-7.03,2.53,4.53,8.73
11.837431907653809,-4.89,1.81,3.54,6.3
11.843493938446045,-2.88,1.85,2.74,4.38
11.853794813156128,-1.31,2.15,2.0,3.21
11.921271800994873,-0.05,2.51,1.02,2.7
11.923317909240723,1.05,2.87,0.08,3.05
11.92489767074585,2.09,2.95,-0.4,3.63
11.927741765975952,2.97,2.82,-0.74,4.16
11.929338932037354,3.64,2.5,-1.4,4.63
11.945813655853271,3.63,2.06,-1.62,4.47
11.94747281074524,2.85,1.52,-1.38,3.51
11.950198650360107,1.92,1.09,-1.48,2.65
11.952899932861328,1.36,0.68,-1.85,2.39
11.955537796020508,1.14,0.17,-2.22,2.5
11.962786674499512,1.12,-0.26,-2.58,2.82
12.026620864868164,1.61,-0.44,-3.16,3.57
12.028457880020142,2.39,-0.5,-3.34,4.13
12.030093669891357,3.1,-0.56,-3.49,4.7
12.032764911651611,3.93,-0.56,-3.76,5.46
12.03495168685913,4.64,-0.32,-3.49,5.81
12.037623882293701,5.07,0.09,-3.5,6.16
12.040284872055054,5.42,0.71,-3.84,6.68
12.042803764343262,5.65,1.24,-4.04,7.05
12.052464962005615,5.14,1.3,-3.58,6.39
12.062548875808716,4.04,1.04,-2.92,5.09
12.125500679016113,3.01,0.8,-2.56,4.03
12.12731385231018,2.34,0.64,-1.96,3.11
12.129050731658936,1.94,0.48,-1.78,2.67
12.131968975067139,1.64,0.36,-1.59,2.31
12.134663820266724,1.56,0.11,-1.44,2.12
12.137317657470703,1.62,-0.06,-1.42,2.15
12.139969825744629,1.78,-0.14,-1.3,2.2
12.142467975616455,2.09,-0.27,-1.12,2.38
12.15187692642212,2.45,-0.74,-0.96,2.73
12.161434650421143,2.41,-0.97,-0.78,2.71
12.225496768951416,2.25,-1.09,-0.89,2.65
12.227321863174438,2.11,-1.21,-0.97,2.61
12.228876829147339,1.88,-1.25,-0.82,2.4
12.231598854064941,1.73,-1.38,-0.76,2.33
12.2340087890625,1.56,-1.48,-0.5,2.2
12.236647844314575,1.33,-1.52,-0.42,2.06
12.239282846450806,1.31,-1.59,-0.15,2.06
12.241724967956543,1.26,-1.55,0.06,1.99
12.251104831695557,1.04,-1.42,0.01,1.76
12.261627674102783,0.95,-1.46,0.04,1.74
12.325532913208008,0.92,-1.6,-0.02,1.84
12.327388763427734,0.99,-1.86,-0.01,2.1
12.328953742980957,1.27,-2.24,-0.17,2.58
12.332030773162842,1.66,-2.41,-0.43,2.95
12.334693908691406,2.14,-2.37,-0.57,3.24
12.337349891662598,2.75,-2.3,-1.53,3.89
12.339999675750732,0.62,-1.99,-4.55,5.0
12.342504978179932,-2.8,-1.74,-5.01,5.99
12.350457668304443,-5.58,-2.12,-2.02,6.3
12.360138893127441,-7.18,-3.15,2.26,8.15
12.431307792663574,-5.89,-4.73,3.51,8.32
12.43313980102539,-3.24,-5.51,1.8,6.64
12.434633731842041,-1.0,-4.66,4.21,6.35
12.437336921691895,-1.61,-3.67,5.96,7.18
12.439823865890503,-4.28,-3.94,6.69,8.86
12.442575931549072,-3.61,-5.57,8.86,11.07
12.444082736968994,-2.67,-6.16,6.28,9.19
12.44759488105774,-2.58,-4.6,1.12,5.39
12.450159788131714,-0.96,-1.94,-2.77,3.51
12.459266662597656,1.01,0.35,-2.91,3.1
12.531292915344238,2.12,2.09,-3.37,4.49
12.533296823501587,2.81,3.38,-5.15,6.77
12.534793853759766,3.46,4.17,-5.57,7.77
12.537785768508911,4.56,3.94,-3.64,7.04
12.54047179222107,5.35,2.32,-0.78,5.88
12.543223857879639,4.42,0.17,0.54,4.45
12.544689655303955,1.92,-1.23,0.43,2.32
12.547487735748291,-0.63,-1.73,0.58,1.93
12.55022668838501,-1.76,-1.89,0.87,2.72
12.558702945709229,-1.91,-1.82,0.53,2.69
12.631221771240234,-2.27,-1.11,0.28,2.54
12.633225917816162,-2.15,0.38,-0.11,2.18
12.634714841842651,-1.21,1.68,-0.33,2.09
12.637549877166748,-0.63,2.06,-0.54,2.22
12.640185832977295,-0.55,1.57,-0.6,1.76
12.642825841903687,-0.6,0.64,0.07,0.88
12.644295692443848,-0.57,0.05,0.61,0.83
12.647467851638794,-0.67,-0.15,0.47,0.83
12.649799823760986,-0.58,-0.29,0.47,0.8
12.657890796661377,-0.4,-0.18,0.56,0.71
12.73029088973999,-0.08,0.13,0.75,0.76
12.732288837432861,0.35,0.2,0.76,0.86
12.733749866485596,0.4,0.1,0.81,0.9
12.736571788787842,0.16,-0.07,0.8,0.81
12.73923397064209,-0.11,-0.14,0.99,1.0
12.741943836212158,-0.22,-0.01,1.0,1.02
12.744399785995483,0.06,0.15,0.64,0.66
12.745999813079834,0.33,0.26,0.8,0.9
12.762264728546143,0.12,0.19,1.05,1.07
12.763960838317871,-0.38,0.0,0.94,1.01
12.767521858215332,-0.83,-0.04,0.45,0.94
12.834202766418457,-0.78,-0.02,0.94,1.22
12.836270809173584,-0.13,-0.09,0.8,0.81
12.83775782585144,0.21,0.08,-0.11,0.25
12.840640783309937,-0.02,0.42,-0.16,0.44
12.843361854553223,-0.49,0.75,-0.42,0.98
12.844888687133789,-0.75,0.88,-0.64,1.32
12.84779691696167,-0.51,0.99,-0.61,1.26
12.850457668304443,0.17,1.18,-0.67,1.36
12.856520652770996,0.64,1.29,-0.5,1.52
12.866949796676636,0.66,1.19,-0.7,1.53
12.933548927307129,0.38,0.93,-0.75,1.25
12.935390949249268,-0.05,0.56,-0.71,0.9
12.936911821365356,0.04,0.22,-0.62,0.65
12.939582824707031,0.43,-0.08,-0.08,0.44
12.942179679870605,0.46,-0.13,-0.21,0.52
12.944639682769775,0.47,0.36,-0.68,0.9
12.946258783340454,0.89,0.75,-0.25,1.19
12.963659763336182,1.27,0.32,0.38,1.36
12.965307712554932,0.81,-0.54,0.34,1.03
12.96820068359375,0.0,-0.85,-0.07,0.85
13.034085750579834,-0.14,-0.6,-0.1,0.62
13.035964965820312,0.12,-0.79,0.23,0.83
13.037486791610718,0.09,-1.09,0.09,1.09
13.040327787399292,0.22,-0.76,-0.14,0.8
13.042820930480957,1.12,-0.37,-0.09,1.18
13.044325828552246,1.79,-1.18,0.41,2.18
13.047682762145996,1.12,-3.07,0.31,3.28
13.050323963165283,-0.5,-4.69,-0.21,4.72
13.055446863174438,-1.8,-5.46,-0.31,5.75
13.06562876701355,-1.86,-6.15,0.16,6.42
13.133189678192139,-1.66,-6.86,0.02,7.05
13.134992837905884,-1.86,-7.24,-1.24,7.57
13.136480808258057,-1.49,-8.02,-0.68,8.18
13.139295816421509,-1.14,-8.88,1.15,9.02
13.141955852508545,-1.96,-8.01,0.52,8.26
13.144538879394531,-3.0,-5.29,-0.8,6.13
13.146034717559814,-3.33,-2.6,-1.85,4.61
13.163693904876709,-3.18,-1.0,0.4,3.35
13.165267944335938,-2.39,-0.17,2.35,3.35
13.167818784713745,-0.71,1.22,1.66,2.17
13.23802900314331,0.69,3.74,1.92,4.26
13.239969730377197,0.11,6.68,2.96,7.3
13.241466999053955,-1.59,9.0,2.28,9.41
13.246140956878662,-3.25,10.22,0.84,10.75
13.248409748077393,-5.26,9.64,0.91,11.01
13.265279769897461,-7.07,7.2,2.72,10.45
13.266939878463745,-7.31,4.4,3.52,9.22
13.269842863082886,-6.04,2.47,2.91,7.14
13.273102760314941,-3.86,1.92,2.01,4.75
13.275774955749512,-1.69,2.17,1.95,3.37
13.341775894165039,-0.1,2.44,2.01,3.16
13.34380292892456,1.08,2.73,1.31,3.21
13.345340728759766,1.91,3.1,0.69,3.7
13.34822678565979,2.33,3.34,0.49,4.1
13.350878715515137,2.48,3.37,0.35,4.19
13.353440761566162,2.37,3.34,-0.17,4.09
13.356032848358154,1.79,3.23,-0.64,3.74
13.358832836151123,0.72,3.12,-0.62,3.26
13.361574649810791,-0.23,2.89,-0.56,2.95
13.363494873046875,-0.51,2.45,-0.86,2.64
13.442530870437622,-0.17,1.8,-1.25,2.19
13.444329738616943,0.66,0.87,-1.67,1.99
13.445858001708984,1.71,-0.23,-2.17,2.77
13.448973655700684,2.67,-1.17,-2.56,3.87
13.451672792434692,3.54,-1.79,-2.71,4.8
13.45433783531189,4.12,-1.7,-2.67,5.19
13.45698881149292,4.25,-0.96,-2.38,4.96
13.459638833999634,4.01,0.05,-2.18,4.56
13.461803913116455,3.64,0.84,-2.13,4.3
13.463414669036865,3.37,1.18,-2.05,4.11
13.542167663574219,3.14,1.29,-1.93,3.9
13.544004917144775,2.76,1.2,-1.95,3.58
13.545541763305664,2.27,0.82,-1.92,3.08
13.548447847366333,1.89,0.21,-1.68,2.53
13.551122665405273,1.78,-0.49,-1.55,2.41
13.55379581451416,1.83,-1.07,-1.55,2.62
13.556204795837402,2.06,-1.52,-1.58,3.0
13.558938980102539,2.17,-1.7,-1.62,3.19
13.56160283088684,2.21,-1.72,-1.63,3.24
13.56329870223999,2.2,-1.47,-1.71,3.15
13.578837871551514,2.07,-1.06,-1.71,2.88
13.642454862594604,1.92,-0.79,-1.6,2.62
13.644433975219727,1.53,-0.69,-1.25,2.09
13.645975828170776,1.03,-0.72,-0.96,1.58
13.648794651031494,0.78,-0.9,-0.48,1.28
13.651494979858398,0.68,-1.18,0.07,1.36
13.654099941253662,0.6,-1.5,0.24,1.63
13.656664848327637,0.5,-1.69,0.36,1.79
13.659363746643066,0.58,-1.9,0.55,2.06
13.661678791046143,0.75,-2.22,0.61,2.42
13.671197891235352,0.84,-2.49,0.5,2.67
13.74101972579956,0.83,-2.48,0.33,2.63
13.742814779281616,0.85,-2.26,0.3,2.43
13.744412899017334,0.84,-1.92,0.25,2.11
13.747072696685791,0.8,-1.56,0.3,1.77
13.763221740722656,0.81,-1.33,0.3,1.58
13.764760971069336,0.75,-1.25,0.28,1.48
13.767483711242676,0.66,-1.37,0.3,1.55
13.770155906677246,0.9,-1.63,0.19,1.87
13.772812843322754,0.83,-1.71,-1.6,2.48
13.775490760803223,-0.52,-1.62,-2.17,2.75
13.84067177772522,-0.5,-2.09,-1.06,2.39
13.842482805252075,1.03,-2.71,0.48,2.93
13.844828844070435,2.46,-2.74,1.13,3.85
13.846393823623657,2.27,-2.29,0.35,3.24
13.864323854446411,1.06,-1.84,1.28,2.47
13.865938663482666,0.14,-1.74,3.67,4.06
13.868518829345703,-0.88,-1.53,4.39,4.73
13.871251821517944,-2.55,-0.93,3.32,4.28
13.873964786529541,-5.18,-0.54,3.8,6.44
13.876565933227539,-8.74,-1.2,2.91,9.28
13.942006826400757,-11.04,-2.87,0.85,11.43
13.943899869918823,-9.72,-4.97,0.87,10.95
13.945430755615234,-3.1,-6.16,2.07,7.2
13.948160648345947,2.62,-4.46,1.51,5.38
13.950491905212402,4.41,-1.21,-1.3,4.75
13.953081846237183,4.7,1.52,-2.18,5.39
13.95572566986084,4.52,3.14,-2.37,5.99
13.958361864089966,4.12,3.42,-3.49,6.39
13.961614847183228,3.9,2.36,-3.09,5.5
13.969234943389893,3.66,0.54,-1.25,3.9
14.04390287399292,2.59,-0.76,-0.66,2.77
14.045706748962402,0.94,-1.38,-0.51,1.74
14.047358989715576,-0.24,-1.59,-0.2,1.62
14.05014681816101,-0.71,-1.49,0.08,1.65
14.052812814712524,-0.7,-1.07,0.31,1.31
14.055457830429077,-0.45,-0.47,0.46,0.79
14.058007717132568,-0.07,0.17,0.32,0.36
14.060702800750732,0.26,0.58,-0.27,0.69
14.062135696411133,0.35,0.75,-0.77,1.13
14.068317890167236,0.29,0.86,-0.9,1.27
14.14199686050415,0.39,0.76,-0.48,0.97
14.143908977508545,0.5,0.49,-0.24,0.74
14.145421981811523,0.24,0.25,-0.06,0.35
14.148073673248291,-0.36,0.17,0.36,0.53
14.15071177482605,-0.89,0.21,0.55,1.06
14.153366804122925,-1.13,0.37,0.35,1.23
14.156016826629639,-1.01,0.54,0.63,1.3
14.158689975738525,-0.73,0.69,0.55,1.14
14.161609649658203,-0.49,0.89,0.34,1.07
14.167714834213257,-0.4,1.02,0.42,1.17
14.244642734527588,-0.51,1.01,0.5,1.23
14.246529817581177,-0.77,0.89,0.49,1.27
14.248059749603271,-0.94,0.69,0.75,1.38
14.250893831253052,-1.19,0.26,1.26,1.75
14.253516674041748,-1.59,-0.34,1.38,2.13
14.256200790405273,-1.54,-0.76,1.2,2.09
14.258928775787354,-0.97,-0.75,0.63,1.37
14.261707782745361,-0.28,-0.33,0.41,0.59
14.263415813446045,0.33,0.14,0.22,0.42
14.279943943023682,0.58,0.44,-0.46,0.86
14.344860792160034,0.76,0.74,-0.78,1.31
14.347239971160889,0.91,1.15,-0.96,1.75
14.348724842071533,0.92,1.5,-0.87,1.96
14.351658821105957,0.6,1.38,-0.3,1.53
14.354296684265137,-0.1,0.78,-0.75,1.08
14.357049942016602,-0.61,-0.03,-0.69,0.92
14.359837770462036,-0.52,-0.88,-0.05,1.02
14.362241744995117,0.02,-1.43,0.44,1.49
14.363834857940674,0.67,-1.19,0.4,1.42
14.379520893096924,1.19,-0.26,0.17,1.22
14.381114959716797,1.76,0.73,0.31,1.93
14.447013854980469,2.06,1.32,0.15,2.45
14.449028968811035,1.79,1.38,-0.05,2.26
14.45049786567688,1.08,0.94,0.01,1.43
14.453341960906982,0.47,0.3,-0.05,0.55
14.455999851226807,0.21,-0.5,0.39,0.66
14.458698749542236,-0.22,-1.42,0.58,1.54
14.461567878723145,-0.84,-1.91,0.32,2.11
14.46304178237915,-1.36,-1.69,-0.02,2.16
14.481887817382812,-1.55,-1.38,-0.37,2.1
14.483487844467163,-1.64,-1.91,-0.07,2.51
14.54948878288269,-2.07,-3.22,-0.68,3.88
14.55155897140503,-2.57,-4.52,-1.56,5.42
14.553096771240234,-2.47,-5.87,-0.75,6.41
14.555732727050781,-1.65,-6.46,-1.24,6.78
14.558206796646118,-0.48,-6.55,-2.32,6.96
14.560704708099365,0.46,-8.13,-0.31,8.14
14.562175750732422,0.16,-9.87,0.13,9.87
14.564964771270752,-1.25,-9.52,-0.21,9.6
14.567633867263794,-2.64,-7.15,-0.63,7.64
14.574801921844482,-2.88,-4.68,-0.68,5.53
14.642929792404175,-2.73,-3.18,-0.34,4.2
14.644921779632568,-3.03,-2.2,-0.07,3.74
14.646454811096191,-3.37,-1.09,0.7,3.61
14.649139881134033,-3.08,-0.06,1.26,3.32
14.651832818984985,-2.11,1.24,0.84,2.58
14.65449571609497,-0.59,2.93,1.18,3.21
14.657107830047607,0.36,4.46,2.14,4.95
14.65978193283081,-0.53,5.68,3.0,6.44
14.664296865463257,-1.6,6.72,3.51,7.74
14.674442768096924,-1.66,7.73,2.24,8.21
14.742698669433594,-2.24,8.59,1.4,8.98
14.744502782821655,-3.89,7.85,2.89,9.22
14.746036767959595,-5.2,5.71,3.75,8.58
14.748713970184326,-5.77,3.91,3.62,7.85
14.751378774642944,-5.41,2.98,3.14,6.92
14.754051685333252,-4.06,2.83,2.83,5.7
14.756768703460693,-2.6,3.0,2.62,4.75
14.759214878082275,-1.5,3.07,2.32,4.13
14.763697862625122,-0.66,3.09,1.69,3.58
14.773817777633667,0.09,3.09,0.89,3.21
14.847121715545654,0.78,2.88,0.49,3.02
14.84896183013916,1.34,2.46,0.38,2.82
14.85042667388916,1.75,1.9,0.14,2.58
14.853333950042725,1.88,1.48,-0.17,2.39
14.856001853942871,1.62,1.25,-0.26,2.06
14.858718872070312,1.13,1.15,-0.28,1.63
14.861732959747314,0.78,1.07,-0.4,1.38
14.863264799118042,0.64,1.08,-0.69,1.43
14.882197856903076,0.87,1.07,-1.14,1.78
14.88378381729126,1.54,0.96,-1.55,2.38
14.95158576965332,2.37,0.69,-1.88,3.1
14.953559875488281,3.11,0.33,-2.29,3.87
14.955023765563965,3.68,0.1,-2.72,4.57
14.957913875579834,4.08,0.03,-3.18,5.17
14.960502862930298,4.36,0.18,-3.27,5.45
14.961921691894531,4.52,0.44,-3.27,5.59
14.964918851852417,4.47,0.65,-3.5,5.71
14.967592716217041,4.35,0.59,-3.64,5.7
14.970231771469116,4.18,0.22,-3.57,5.5
14.972832679748535,3.89,-0.28,-3.43,5.19
15.04572582244873,3.58,-0.72,-2.84,4.62
15.047837734222412,3.32,-0.88,-2.16,4.05
15.049288749694824,3.03,-0.61,-2.01,3.68
15.052192687988281,2.97,-0.4,-2.13,3.67
15.05483865737915,3.26,-0.5,-1.82,3.76
15.057468891143799,3.38,-0.41,-1.78,3.84
15.059968948364258,3.2,-0.26,-1.84,3.7
15.062448978424072,2.77,-0.26,-1.72,3.27
15.063837766647339,2.17,-0.43,-1.31,2.57
15.082850933074951,1.73,-0.82,-1.06,2.18
15.084528923034668,1.52,-1.26,-0.96,2.19
15.150879859924316,1.46,-1.68,-0.65,2.31
15.152831792831421,1.4,-1.87,-0.37,2.36
15.154334783554077,1.46,-1.72,-0.14,2.26
15.157127857208252,1.69,-1.44,-0.07,2.22
15.159850835800171,1.99,-1.24,-0.39,2.37
15.162491798400879,2.26,-1.31,-0.41,2.64
15.16401481628418,2.5,-1.59,-0.18,2.96
15.182838916778564,2.78,-1.92,-0.58,3.42
15.184380769729614,2.78,-2.2,-1.0,3.68
15.187074661254883,2.51,-2.53,-0.94,3.68
15.25329875946045,2.26,-2.88,-0.73,3.73
15.2552809715271,2.48,-3.15,-1.12,4.16
15.256773948669434,1.92,-3.06,-4.09,5.45
15.259622812271118,-1.3,-2.74,-3.95,4.97
15.262191772460938,-3.97,-2.8,0.89,4.93
15.263690948486328,-3.27,-3.44,3.86,6.11
15.281988859176636,-1.34,-3.29,3.0,4.64
15.283607959747314,-1.81,-1.91,2.71,3.77
15.286385774612427,-4.08,-1.13,4.82,6.41
15.288972854614258,-4.84,-1.37,5.62,7.54
15.35562777519226,-4.61,-2.09,2.67,5.72
15.357686996459961,-5.29,-2.65,1.12,6.02
15.359175682067871,-5.09,-2.89,1.44,6.02
15.362141847610474,-3.64,-2.99,-0.62,4.75
15.364375829696655,-3.75,-2.56,-1.84,4.89
15.381051778793335,-3.89,-1.97,1.6,4.64
15.382675647735596,-1.34,-2.32,4.03,4.83
15.385507822036743,1.04,-2.26,2.73,3.69
15.388165950775146,1.62,-1.69,0.95,2.52
15.390910863876343,1.49,-1.28,0.1,1.96
15.457948684692383,1.75,-0.72,-0.77,2.04
15.459804773330688,2.12,-0.05,-1.91,2.85
15.46130084991455,2.56,0.43,-3.06,4.01
15.462918758392334,3.04,0.79,-3.21,4.49
15.481346845626831,3.64,1.06,-2.36,4.46
15.48297381401062,3.67,1.19,-1.63,4.18
15.485658884048462,2.67,0.93,-0.75,2.92
15.48836374282837,1.15,0.21,0.06,1.17
15.491020679473877,-0.26,-0.52,0.74,0.94
15.49373984336853,-1.52,-0.99,0.92,2.03
15.560304880142212,-2.6,-1.05,0.43,2.83
15.562066793441772,-3.2,-0.67,-0.08,3.27
15.563616752624512,-3.1,-0.17,-0.24,3.11
15.566386699676514,-2.59,0.32,0.06,2.61
15.569050788879395,-1.92,0.65,0.24,2.04
15.571695804595947,-1.41,0.63,0.15,1.55
15.574349880218506,-1.04,0.44,0.23,1.15
15.57707166671753,-0.6,0.11,0.3,0.67
15.579450845718384,-0.2,-0.21,0.2,0.35
15.581043720245361,-0.04,-0.3,0.21,0.36
15.661900997161865,0.12,-0.16,0.27,0.33
15.663748741149902,0.09,0.1,0.19,0.23
15.665380954742432,-0.14,0.33,0.05,0.36
15.668206691741943,-0.27,0.47,-0.01,0.54
15.670853853225708,-0.28,0.57,0.02,0.63
15.673512935638428,-0.3,0.48,0.34,0.66
15.676219940185547,-0.55,0.17,0.76,0.95
15.679046869277954,-1.12,-0.15,0.85,1.41
15.68091869354248,-1.42,-0.06,1.01,1.74
15.696974754333496,-1.22,0.24,0.99,1.58
15.763739824295044,-0.87,0.44,1.02,1.41
15.765753746032715,-0.48,0.69,1.1,1.38
15.767294883728027,-0.3,0.89,1.01,1.37
15.77019476890564,-0.57,0.84,1.08,1.48
15.77284574508667,-1.06,0.67,1.31,1.81
15.775441646575928,-1.18,0.53,1.14,1.72
15.778195858001709,-0.9,0.55,0.91,1.39
15.779651880264282,-0.44,0.57,0.64,0.96
15.782426834106445,0.0,0.51,0.46,0.68
15.785080909729004,0.36,0.4,0.29,0.61
15.852930784225464,0.41,0.31,0.01,0.51
15.854982852935791,0.25,0.14,-0.34,0.44
15.85649585723877,0.03,0.22,-1.31,1.32
15.859602928161621,0.38,0.63,-1.01,1.24
15.862375736236572,0.82,0.67,-0.16,1.07
15.863870859146118,0.8,0.28,-0.92,1.25
15.881247997283936,0.57,0.0,-0.86,1.03
15.882884979248047,0.24,0.07,-0.65,0.69
15.885682821273804,0.26,0.52,-0.46,0.74
15.888359785079956,0.74,0.98,-0.32,1.26
15.957080841064453,1.33,1.13,-0.21,1.75
15.959129810333252,1.61,0.8,0.14,1.8
15.96064567565918,1.18,0.05,-0.19,1.19
15.962163925170898,0.82,-0.43,-0.45,1.02
15.964728832244873,0.95,-0.31,-0.11,1.0
15.967453956604004,1.29,0.06,0.09,1.29
15.9700927734375,1.41,0.45,0.0,1.48
15.97272276878357,1.31,0.56,0.12,1.42
15.975388765335083,1.02,0.34,0.02,1.07
15.97788381576538,0.66,-0.03,-0.05,0.66
15.985652923583984,0.21,-0.46,-0.03,0.5
16.056527853012085,-0.13,-1.09,0.17,1.11
16.05850386619568,-0.43,-1.98,-0.1,2.02
16.060043811798096,-0.69,-2.77,-0.97,3.01
16.06292986869812,-0.9,-3.6,-1.03,3.85
16.064502716064453,-1.2,-4.34,-1.18,4.65
16.081827878952026,-1.37,-4.72,-1.57,5.15
16.08345890045166,-1.0,-5.08,-0.64,5.21
16.086366653442383,-0.6,-5.73,-0.78,5.81
16.08901882171631,-0.1,-6.95,-0.65,6.98
16.091739654541016,0.07,-8.7,0.12,8.7
16.1615309715271,-0.83,-9.66,-0.13,9.69
16.163533687591553,-2.42,-9.09,-0.19,9.4
16.16543197631836,-3.56,-7.61,-0.2,8.4
16.168012857437134,-4.03,-6.47,0.29,7.62
16.170564651489258,-4.17,-5.38,1.63,6.99
16.17300271987915,-4.56,-4.18,1.18,6.29
16.175771713256836,-5.16,-2.58,-0.06,5.76
16.178387880325317,-4.7,-0.83,0.01,4.77
16.17983078956604,-3.84,0.68,0.52,3.93
16.184449672698975,-3.39,2.01,1.39,4.17
16.256361961364746,-3.24,3.4,1.58,4.95
16.258234977722168,-3.94,4.92,1.68,6.52
16.259743690490723,-4.87,6.31,2.14,8.25
16.262765884399414,-4.79,7.33,1.48,8.88
16.26432991027832,-5.23,7.03,0.76,8.79
16.282062768936157,-6.31,3.95,2.08,7.72
16.28377079963684,-6.04,0.67,3.03,6.79
16.28667187690735,-5.2,-1.09,2.46,5.85
16.289429664611816,-4.08,-1.58,1.52,4.63
16.29211688041687,-3.2,-0.97,1.23,3.56
16.36244487762451,-3.14,0.06,1.02,3.3
16.364622831344604,-3.24,0.77,0.63,3.38
16.36610984802246,-3.07,1.18,0.37,3.3
16.36901879310608,-2.9,1.19,0.48,3.17
16.3716938495636,-2.91,0.91,0.57,3.1
16.374335765838623,-3.13,0.41,0.55,3.2
16.37707781791687,-3.38,-0.2,0.47,3.41
16.379788875579834,-3.46,-0.76,0.42,3.56
16.38165283203125,-3.27,-1.11,0.07,3.45
16.396739959716797,-2.84,-1.17,-0.49,3.11
16.466277837753296,-2.19,-1.2,-1.09,2.72
16.468259811401367,-1.43,-1.27,-1.55,2.46
16.469761848449707,-0.79,-1.47,-1.87,2.5
16.472508907318115,-0.25,-1.83,-2.13,2.81
16.475201845169067,0.2,-2.22,-2.28,3.18
16.477893829345703,0.65,-2.54,-2.68,3.74
16.479352951049805,0.98,-2.62,-2.95,4.06
16.482844829559326,1.39,-2.37,-3.18,4.2
16.485455989837646,1.5,-2.02,-3.41,4.23
16.488019943237305,1.12,-1.99,-3.24,3.96
16.56072473526001,0.64,-2.11,-3.01,3.73
16.56269598007202,0.57,-2.2,-2.9,3.68
16.564360857009888,1.03,-2.34,-3.03,3.96
16.567168712615967,1.63,-2.38,-3.07,4.21
16.56984567642212,2.27,-2.33,-3.23,4.58
16.572434902191162,2.49,-2.17,-3.48,4.79
16.57508373260498,2.15,-2.05,-3.42,4.53
16.577688694000244,1.73,-2.13,-3.17,4.19
16.580001831054688,1.57,-2.4,-3.35,4.4
16.58157968521118,2.05,-2.79,-3.78,5.12
16.66634488105774,2.65,-2.96,-3.95,5.6
16.668125867843628,2.5,-3.01,-3.44,5.2
16.66960573196411,2.8,-3.32,-3.55,5.6
16.672600746154785,3.43,-3.21,-3.69,5.97
16.675048828125,3.81,-2.29,-3.0,5.36
16.677751779556274,3.78,-1.32,-3.28,5.17
16.68032693862915,3.43,-0.39,-3.3,4.77
16.681997776031494,3.39,0.55,-3.1,4.62
16.698237895965576,3.56,1.26,-3.09,4.87
16.69983983039856,3.92,1.1,-3.48,5.35
16.772119998931885,4.15,0.29,-3.86,5.67
16.774170875549316,1.63,-0.63,-1.31,2.18
16.77566385269165,-0.9,-2.68,1.99,3.45
16.77854585647583,1.36,-5.76,0.19,5.92
16.780052661895752,5.16,-8.17,-4.22,10.54
16.782901763916016,6.87,-7.89,-5.8,11.96
16.785576820373535,5.35,-3.84,-5.81,8.78
16.78826379776001,4.11,0.4,-5.92,7.21
16.790860652923584,4.91,3.14,-4.79,7.54
16.793461799621582,5.96,4.87,-4.92,9.13
16.79637885093689,5.91,5.55,-3.81,8.95
16.867742776870728,4.81,4.26,0.28,6.43
16.86972188949585,3.35,1.52,2.14,4.25
16.871185779571533,2.17,-0.76,0.87,2.45
16.87395668029785,1.69,-2.39,0.51,2.97
16.87666082382202,1.04,-3.25,1.95,3.93
16.879684925079346,-0.25,-2.81,1.43,3.16
16.881200790405273,-0.39,-1.6,-1.43,2.18
16.89814281463623,0.18,-0.28,-3.21,3.22
16.89976978302002,0.49,0.34,-3.07,3.12
16.902499675750732,0.49,0.42,-2.5,2.58
16.97513484954834,0.18,0.36,-1.97,2.01
16.97714376449585,-0.39,0.25,-1.23,1.31
16.9786376953125,-0.86,0.09,-0.41,0.95
16.980198860168457,-0.94,-0.18,-0.32,1.0
16.99898886680603,-0.58,-0.53,-0.2,0.81
17.00064992904663,-0.29,-0.62,-0.02,0.68
17.003397941589355,-0.1,-0.33,-0.24,0.42
17.0060818195343,0.42,0.07,-0.09,0.43
17.008784770965576,0.8,0.42,-0.24,0.93
17.011523723602295,0.71,0.64,-0.69,1.17
17.08450174331665,0.44,0.69,-0.97,1.26
17.08637571334839,0.39,0.57,-0.91,1.14
17.08790874481201,0.25,0.4,-0.64,0.79
17.09080171585083,-0.1,0.38,-0.5,0.63
17.09334897994995,-0.28,0.4,-0.35,0.6
17.0964298248291,-0.34,0.33,-0.42,0.63
17.09796977043152,-0.48,0.3,-0.51,0.76
17.116246700286865,-0.5,0.36,-0.31,0.68
17.11782479286194,-0.38,0.62,-0.4,0.82
17.120585918426514,-0.36,0.8,-0.41,0.96
17.193984985351562,-0.25,0.8,-0.3,0.89
17.19581174850464,-0.22,0.64,-0.1,0.68
17.19735097885132,-0.46,0.23,-0.2,0.55
17.20018482208252,-0.51,-0.35,-0.5,0.79
17.202793836593628,0.09,-1.0,-0.03,1.0
17.205338954925537,0.67,-1.26,0.07,1.42
17.207780838012695,0.49,-0.95,-0.47,1.16
17.210487842559814,0.14,-0.48,-0.78,0.92
17.21319580078125,-0.03,-0.06,-1.08,1.08
17.214967727661133,-0.12,0.17,-0.92,0.94
17.30194878578186,-0.29,0.04,-0.61,0.67
17.303778648376465,-0.56,-0.18,-0.54,0.79
17.305216789245605,-0.65,-0.35,-0.49,0.88
17.308035850524902,-0.98,-0.59,-0.36,1.19
17.310755729675293,-1.5,-0.87,-0.4,1.77
17.31327772140503,-1.74,-0.96,-1.01,2.22
17.314754962921143,-1.45,-1.0,-0.77,1.92
17.333446979522705,-0.7,-1.28,-0.46,1.52
17.335040807724,-0.29,-1.48,-0.39,1.55
17.337928771972656,-0.08,-1.41,-0.18,1.42
17.411273956298828,-0.09,-1.25,-0.3,1.28
17.413219928741455,-0.35,-1.15,-0.4,1.26
17.414869785308838,-0.65,-1.05,-0.26,1.26
17.41740894317627,-0.76,-1.12,0.46,1.42
17.420071840286255,-1.01,-1.39,0.75,1.87
17.422658920288086,-1.61,-1.54,0.4,2.26
17.425479888916016,-1.96,-1.55,0.64,2.57
17.42822265625,-2.31,-1.66,0.46,2.88
17.431540966033936,-2.76,-1.79,-0.6,3.34
17.433169841766357,-2.83,-2.14,-0.95,3.67
17.521169662475586,-2.47,-2.88,-0.26,3.8
17.52299165725708,-2.26,-3.81,0.25,4.43
17.52450680732727,-2.61,-4.61,0.21,5.3
17.52731990814209,-3.22,-5.41,0.54,6.31
17.53019881248474,-3.67,-6.2,1.14,7.29
17.531697750091553,-4.02,-6.73,1.28,7.94
17.54814100265503,-4.65,-6.83,0.94,8.31
17.549949645996094,-5.5,-6.37,-0.04,8.41
17.552684783935547,-7.09,-5.44,0.09,8.93
17.555295944213867,-8.67,-4.32,-0.78,9.71
17.629183769226074,-9.21,-3.34,-0.84,9.83
17.63121485710144,-9.33,-2.8,0.22,9.74
17.63286066055298,-9.19,-2.54,-0.13,9.53
17.635679721832275,-8.96,-2.09,-1.54,9.32
17.63832187652588,-8.65,-1.57,-1.78,8.96
17.640978813171387,-8.05,-1.36,-1.25,8.25
17.64354681968689,-6.99,-1.15,-1.91,7.33
17.646750926971436,-5.93,-0.68,-2.94,6.65
17.648321866989136,-4.95,-0.16,-3.21,5.9
17.65117383003235,-3.23,0.24,-4.01,5.15
17.65383291244507,-1.26,0.67,-4.97,5.17
17.727530002593994,-0.43,0.58,-5.54,5.58
17.729573726654053,-2.86,0.02,-3.65,4.63
17.731183767318726,-5.66,-0.28,-2.18,6.07
17.733925819396973,-6.41,0.07,-2.22,6.78
17.736620903015137,-5.88,1.01,-2.49,6.46
17.7393217086792,-5.2,2.0,-2.34,6.04
17.74193286895752,-4.54,2.66,-1.94,5.6
17.74446392059326,-3.77,2.84,-2.49,5.33
17.747267723083496,-3.28,2.79,-3.65,5.64
17.74890899658203,-3.28,2.62,-4.06,5.84
17.835667848587036,-3.49,2.24,-3.68,5.54
17.837511777877808,-3.72,1.75,-3.34,5.29
17.83897066116333,-4.11,1.21,-3.19,5.34
17.84176278114319,-4.62,0.77,-3.09,5.61
17.84449076652527,-5.09,0.49,-3.19,6.02
17.84710168838501,-5.52,0.52,-3.55,6.58
17.848634719848633,-5.83,0.77,-3.85,7.02
17.86528491973877,-6.03,1.07,-3.98,7.3
17.866909980773926,-6.13,1.26,-4.25,7.56
17.869687795639038,-5.9,1.12,-4.75,7.65
17.943578720092773,-5.33,0.76,-5.68,7.82
17.94553279876709,-4.62,0.09,-6.66,8.1
17.94707489013672,-4.08,-0.84,-7.14,8.26
17.950251817703247,-3.59,-1.89,-7.69,8.69
17.952852725982666,-2.87,-3.03,-8.55,9.51
17.955464839935303,-2.11,-3.98,-9.05,10.1
17.95801877975464,-1.44,-4.43,-9.2,10.31
17.96069884300232,-0.74,-4.18,-9.55,10.45
17.96351385116577,-0.37,-3.08,-9.77,10.25
17.96525478363037,-0.25,-1.75,-9.43,9.59
18.052777767181396,0.11,-0.8,-9.07,9.1
18.05456280708313,0.51,-0.2,-8.74,8.75
18.056039810180664,0.92,-0.05,-8.53,8.57
18.058862686157227,1.28,-0.05,-8.36,8.45
18.06128478050232,1.58,-0.12,-8.1,8.25
18.063888788223267,1.82,-0.25,-7.76,7.97
18.065424919128418,2.04,-0.47,-7.69,7.96
18.083420753479004,2.6,-0.69,-7.88,8.32
18.085041999816895,3.56,-0.66,-7.81,8.6
18.08805799484253,4.66,-0.41,-7.63,8.94
18.160653829574585,5.54,-0.08,-7.78,9.55
18.16345977783203,5.93,0.14,-7.99,9.95
18.165509700775146,5.96,0.24,-7.79,9.81
18.168190956115723,5.91,0.15,-7.38,9.45
18.17071771621704,5.58,0.07,-6.67,8.69
18.173301696777344,5.23,0.15,-5.77,7.78
18.175952911376953,5.01,0.31,-5.06,7.12
18.178607940673828,4.52,0.64,-4.58,6.46
18.18104887008667,4.24,1.25,-4.13,6.04
18.182814836502075,3.82,1.62,-3.37,5.34
18.268566846847534,4.28,1.09,-3.27,5.49
18.270328998565674,5.75,1.06,-4.43,7.33
18.271824836730957,4.88,0.91,-0.23,4.96
18.274690866470337,0.54,-0.96,8.99,9.05
18.277390956878662,-0.28,-4.54,9.55,10.57
18.280386924743652,2.4,-7.69,4.03,9.0
18.281957864761353,4.59,-9.6,-0.52,10.65
18.299904823303223,5.52,-10.09,-1.19,11.56
18.301453828811646,3.44,-6.87,-6.12,9.82
18.304495811462402,2.81,-2.52,-9.06,9.81
18.37739086151123,4.08,0.44,-5.41,6.79
18.37937879562378,4.24,2.83,-4.94,7.09
18.380908966064453,3.1,4.99,-6.51,8.76
18.38383197784424,1.5,6.02,-4.0,7.38
18.386494874954224,1.54,4.1,-2.35,4.97
18.38914966583252,2.37,1.21,-2.35,3.55
18.391360759735107,1.92,-0.81,0.12,2.08
18.394020795822144,0.11,-2.12,2.2,3.05
18.39653968811035,-1.57,-2.84,2.87,4.33
18.399191856384277,-2.56,-2.46,2.25,4.2
18.472558975219727,-2.63,-1.17,0.12,2.88
18.474554777145386,-1.66,-0.07,-1.71,2.38
18.47601079940796,-0.14,0.46,-2.53,2.57
18.478991985321045,1.15,0.79,-3.23,3.51
18.480507850646973,2.27,0.97,-3.11,3.97
18.483937740325928,3.17,0.87,-2.03,3.86
18.486563682556152,3.45,0.31,-1.12,3.64
18.489354848861694,2.71,-0.52,-0.16,2.76
18.49177598953247,1.31,-0.91,0.52,1.67
18.49446678161621,0.15,-0.82,0.35,0.9
18.497280836105347,-0.85,-0.44,-0.22,0.98
18.56922483444214,-1.82,-0.08,-0.06,1.82
18.571255683898926,-2.31,0.13,0.21,2.32
18.572824954986572,-2.27,0.51,-0.23,2.33
18.5757257938385,-1.89,0.91,-0.19,2.1
18.578483819961548,-1.31,0.95,-0.04,1.61
18.581085681915283,-0.71,0.67,-0.2,0.99
18.582907676696777,-0.08,0.32,-0.38,0.5
18.599402904510498,0.24,0.07,-0.43,0.49
18.601037979125977,0.44,-0.1,-0.67,0.8
18.603587865829468,0.33,-0.1,-0.71,0.78
18.676170825958252,0.16,-0.18,-0.65,0.69
18.678231716156006,-0.04,-0.12,-0.65,0.66
18.679563999176025,-0.41,-0.01,-0.34,0.53
18.681092739105225,-0.7,0.02,-0.03,0.7
18.715195655822754,-0.95,0.05,0.15,0.96
18.717506885528564,-1.02,0.0,0.08,1.02
18.72005796432495,-0.95,-0.11,-0.02,0.95
18.722829818725586,-0.99,-0.2,-0.15,1.02
18.725539684295654,-0.98,-0.2,-0.16,1.01
18.72807288169861,-0.77,-0.08,0.01,0.77
18.801750659942627,-0.47,0.01,0.06,0.47
18.8034987449646,-0.6,0.04,-0.09,0.6
18.805797815322876,-0.92,-0.05,-0.07,0.92
18.808172702789307,-1.03,-0.19,-0.11,1.05
18.810768842697144,-1.0,-0.33,-0.16,1.06
18.813806772232056,-1.04,-0.39,-0.15,1.12
18.815293788909912,-0.92,-0.36,-0.05,0.98
18.832920789718628,-0.7,-0.21,0.03,0.73
18.83450984954834,-0.55,-0.05,-0.05,0.55
18.837554931640625,-0.53,0.07,-0.09,0.54
18.90988278388977,-0.66,0.08,-0.26,0.71
18.911908864974976,-0.83,-0.02,-0.48,0.95
18.913392782211304,-1.09,-0.22,-0.72,1.32
18.91494083404541,-1.43,-0.44,-0.69,1.64
18.933509826660156,-1.77,-0.72,-0.51,1.97
18.935130834579468,-1.97,-1.06,-0.55,2.3
18.93816566467285,-2.24,-1.38,-0.39,2.65
18.940613746643066,-2.65,-1.65,-0.16,3.12
18.943175792694092,-3.07,-1.86,-0.14,3.59
18.945881843566895,-3.43,-2.24,0.35,4.11
19.01747465133667,-3.66,-2.93,1.3,4.86
19.019460678100586,-3.74,-3.73,1.68,5.54
19.02101469039917,-3.85,-4.54,2.04,6.29
19.024049758911133,-4.05,-5.38,2.39,7.14
19.02664566040039,-4.04,-6.05,2.4,7.66
19.029250860214233,-3.73,-6.59,3.12,8.18
19.03069496154785,-3.63,-7.23,2.93,8.6
19.03424072265625,-4.2,-7.98,1.81,9.19
19.036873817443848,-4.64,-8.61,1.69,9.92
19.039260864257812,-5.14,-8.82,1.84,10.37
19.113099813461304,-5.89,-8.58,0.7,10.43
19.11500883102417,-6.42,-7.5,-0.91,9.91
19.116670846939087,-6.7,-5.53,-1.02,8.74
19.119423866271973,-6.99,-4.31,-0.91,8.26
19.122081756591797,-6.19,-2.47,-0.31,6.67
19.124600887298584,-5.0,-0.64,0.19,5.04
19.12734079360962,-3.68,0.7,0.25,3.75
19.12987995147705,-2.08,1.99,-0.55,2.93
19.13140869140625,-0.04,3.28,-2.12,3.9
19.13405990600586,1.71,4.58,-1.72,5.18
19.207937717437744,1.45,5.41,-0.29,5.6
19.209932804107666,-0.62,5.22,-1.31,5.41
19.211461782455444,-2.65,4.76,-1.45,5.63
19.21402597427368,-3.53,4.64,0.17,5.83
19.215577840805054,-3.52,4.57,2.12,6.14
19.23399782180786,-3.32,4.35,2.32,5.94
19.235678672790527,-3.22,4.49,1.26,5.66
19.23866367340088,-2.94,5.07,0.69,5.9
19.24125576019287,-2.44,5.66,1.18,6.27
19.244008779525757,-1.94,5.91,1.48,6.39
19.317999839782715,-1.64,5.72,1.1,6.05
19.319764852523804,-1.47,5.25,0.54,5.47
19.32209873199463,-1.31,4.58,0.27,4.77
19.324662685394287,-0.95,3.65,0.1,3.77
19.327350854873657,-0.38,2.61,-0.13,2.64
19.32988476753235,0.25,1.72,-0.42,1.78
19.33134365081787,0.76,1.19,-0.7,1.57
19.334401845932007,1.38,1.05,-0.79,1.9
19.337048768997192,2.35,1.24,-1.13,2.88
19.33970284461975,3.05,1.63,-2.17,4.08
19.342298984527588,3.18,1.98,-3.33,5.01
19.415766716003418,3.33,2.08,-4.12,5.69
19.41775679588318,4.07,1.82,-4.32,6.2
19.41923999786377,5.06,1.43,-4.33,6.81
19.434115886688232,5.72,1.28,-4.52,7.4
19.43575668334961,6.02,1.54,-4.82,7.86
19.438386917114258,6.09,2.1,-5.04,8.17
19.441049814224243,5.98,2.74,-5.03,8.28
19.44374370574951,5.63,3.3,-4.71,8.04
19.446338653564453,5.11,3.61,-4.25,7.56
19.447853803634644,4.72,3.56,-3.9,7.08
19.521124839782715,4.36,3.35,-3.44,6.48
19.523096799850464,3.98,2.97,-2.96,5.78
19.524605751037598,3.68,2.3,-2.37,4.94
19.527394771575928,3.27,1.58,-1.8,4.05
19.52994966506958,2.83,1.09,-1.59,3.42
19.53138780593872,2.77,0.62,-1.7,3.3
19.534355878829956,2.93,0.27,-1.75,3.42
19.536733865737915,3.09,0.07,-1.52,3.44
19.53938579559326,3.3,-0.22,-1.74,3.73
19.541977882385254,3.42,-0.77,-1.98,4.02
19.61518096923828,3.39,-1.34,-2.13,4.22
19.617199897766113,3.27,-1.9,-2.38,4.46
19.61868667602539,2.98,-2.42,-2.47,4.56
19.63452386856079,2.46,-2.92,-2.07,4.34
19.63619089126587,1.88,-3.4,-1.64,4.21
19.63892889022827,1.29,-3.56,-1.26,3.99
19.641450881958008,0.77,-3.25,-0.92,3.46
19.644193649291992,0.54,-2.38,-0.45,2.48
19.646771907806396,0.93,-1.53,-0.38,1.83
19.64832592010498,2.06,-1.0,-3.37,4.07
19.72124481201172,0.67,-0.72,-6.81,6.88
19.723171710968018,-2.03,-1.09,-3.34,4.05
19.724676847457886,-1.29,-2.73,2.84,4.14
19.727333784103394,2.03,-4.72,2.56,5.74
19.729712963104248,2.51,-5.11,2.04,6.04
19.73119592666626,-0.36,-4.42,2.71,5.19
19.734460830688477,-4.04,-4.11,4.1,7.07
19.737201690673828,-5.65,-4.49,3.74,8.12
19.73983669281006,-6.33,-4.84,0.75,8.0
19.742440700531006,-6.35,-4.89,1.83,8.22
19.816349983215332,-4.36,-5.04,5.13,8.41
19.81823182106018,-1.95,-4.49,5.89,7.65
19.81970477104187,-1.64,-2.45,4.31,5.22
19.83366870880127,-3.51,-0.37,1.19,3.72
19.83532190322876,-4.49,0.51,-0.63,4.56
19.83802366256714,-1.91,-0.14,-1.7,2.56
19.84064292907715,2.29,-1.18,-2.27,3.43
19.84298086166382,5.12,-1.48,-2.27,5.79
19.845350742340088,5.78,-0.75,-2.42,6.31
19.848005771636963,4.81,0.53,-2.82,5.6
19.921555995941162,3.26,1.64,-2.2,4.26
19.923531770706177,1.85,1.42,-1.31,2.67
19.92506980895996,0.72,0.31,-0.61,0.99
19.928027868270874,0.11,-0.52,-0.12,0.54
19.93110680580139,-0.12,-1.2,0.01,1.2
19.93259882926941,-0.58,-1.46,0.37,1.61
19.950053691864014,-1.03,-0.94,-0.11,1.39
19.95169687271118,-0.8,-0.17,-0.19,0.83
19.95431685447693,0.1,0.18,0.23,0.3
19.956997871398926,0.64,0.25,-0.12,0.69
20.031080722808838,0.45,0.35,-0.51,0.76
20.03355598449707,0.37,0.37,-0.48,0.71
20.035045862197876,0.38,0.2,-0.4,0.58
20.037768840789795,0.1,0.11,-0.28,0.31
20.040453910827637,-0.4,0.12,-0.02,0.41
20.04307985305786,-1.1,0.1,0.4,1.17
20.04574680328369,-1.84,0.11,0.86,2.03
20.0483558177948,-2.46,0.08,0.93,2.63
20.050185680389404,-2.6,0.11,0.78,2.71
20.066333770751953,-2.08,0.25,0.66,2.19
20.1389799118042,-1.56,0.33,0.86,1.81
20.14103364944458,-1.32,0.34,0.95,1.66
20.14262866973877,-1.22,0.42,0.82,1.52
20.145622730255127,-1.07,0.52,0.73,1.39
20.148298740386963,-0.91,0.42,0.86,1.32
20.149828910827637,-1.03,0.17,0.92,1.39
20.167622804641724,-1.37,0.02,0.54,1.47
20.16920566558838,-1.48,-0.03,0.28,1.5
20.172294855117798,-1.32,0.03,0.62,1.45
20.175039768218994,-1.15,0.26,0.35,1.22
20.17768669128418,-0.76,0.81,-0.15,1.12
20.25109577178955,-0.04,1.37,-0.15,1.37
20.25275468826294,0.73,1.64,-0.38,1.83
20.254973888397217,1.43,1.74,-0.27,2.26
20.257590770721436,1.68,1.41,0.18,2.2
20.260272979736328,0.84,0.46,0.05,0.95
20.26292896270752,-0.55,-0.65,-0.43,0.95
20.2653169631958,-1.54,-1.46,-0.94,2.32
20.267571926116943,-1.61,-1.86,-0.78,2.58
20.28335976600647,-1.02,-1.81,0.03,2.07
20.28498077392578,-0.62,-1.28,-0.31,1.45
20.358036994934082,-0.35,-0.44,0.06,0.56
20.359993934631348,-0.5,0.18,0.32,0.62
20.361480712890625,-1.0,0.7,-0.71,1.41
20.364829778671265,-0.72,1.6,-0.57,1.84
20.366381883621216,0.3,2.44,-0.02,2.45
20.38429880142212,1.02,2.55,0.46,2.78
20.385953903198242,0.94,1.59,0.19,1.85
20.3888738155365,0.24,0.15,-0.43,0.51
20.391363859176636,-0.46,-0.66,-0.79,1.12
20.39394474029541,-0.54,-0.78,-0.76,1.21
20.46646285057068,-0.28,-0.79,-0.36,0.91
20.46843194961548,-0.15,-0.3,-0.7,0.77
20.469913959503174,0.2,0.86,-0.56,1.04
20.472755908966064,0.61,1.52,0.09,1.64
20.47524380683899,0.53,1.15,0.01,1.26
20.47793984413147,0.1,0.51,-0.57,0.77
20.480655670166016,-0.02,0.25,-0.58,0.63
20.482126712799072,0.12,0.01,-0.71,0.72
20.48512077331543,0.08,-0.9,-0.76,1.18
20.48764681816101,-0.41,-2.47,-0.77,2.61
20.559529781341553,-0.96,-3.44,-1.08,3.73
20.561500787734985,-0.92,-3.51,-1.44,3.9
20.563010692596436,-0.22,-3.32,-1.29,3.56
20.56457281112671,0.26,-3.75,-1.27,3.96
20.56729483604431,0.17,-5.33,-0.86,5.4
20.56992483139038,-0.17,-7.26,-0.85,7.31
20.57259178161621,0.03,-8.88,-0.6,8.9
20.575256824493408,0.41,-9.48,-0.22,9.49
20.57791566848755,0.02,-9.54,-0.9,9.58
20.580461978912354,-1.18,-9.83,-0.35,9.9
20.65109086036682,-2.6,-10.0,0.42,10.34
20.65312671661377,-3.47,-9.17,-0.12,9.8
20.65470266342163,-3.59,-6.93,0.14,7.8
20.657498836517334,-3.32,-4.58,0.17,5.65
20.659844875335693,-3.15,-2.94,1.83,4.68
20.66228199005127,-3.53,-1.6,1.62,4.2
20.665095806121826,-3.59,0.15,1.45,3.87
20.66671586036682,-2.42,2.26,2.77,4.31
20.685182809829712,-1.19,4.54,4.24,6.32
20.68678569793701,-1.7,7.03,4.54,8.53
20.758760929107666,-3.14,9.2,5.0,10.93
20.76074481010437,-3.88,10.7,2.83,11.72
20.762276649475098,-5.81,10.63,2.5,12.36
20.765056848526,-7.25,7.48,4.03,11.16
20.766586780548096,-6.58,4.03,4.05,8.71
20.784589767456055,-5.19,2.11,3.47,6.59
20.786218881607056,-3.53,1.4,2.6,4.6
20.789074897766113,-1.78,1.57,2.12,3.18
20.791623830795288,-0.59,2.08,1.75,2.78
20.794094800949097,0.1,2.5,0.97,2.68
20.865182876586914,0.75,2.95,0.47,3.07
20.867594718933105,1.42,3.16,0.3,3.47
20.86906385421753,1.57,3.06,0.05,3.43
20.872028827667236,1.1,2.82,0.08,3.02
20.874820709228516,0.48,2.56,-0.13,2.6
20.877482891082764,-0.05,2.21,-0.53,2.27
20.880194664001465,-0.42,1.77,-1.0,2.07
20.88161587715149,-0.12,1.35,-1.64,2.12
20.884845733642578,1.24,0.85,-2.37,2.8
20.88750386238098,2.81,0.34,-2.69,3.9
20.96102476119995,3.71,0.08,-3.2,4.9
20.963019847869873,4.03,0.03,-3.89,5.6
20.964507818222046,3.97,0.14,-4.1,5.7
20.966065883636475,3.66,0.19,-3.8,5.27
20.984155654907227,3.25,0.11,-3.53,4.79
20.985745906829834,2.88,0.11,-3.58,4.59
20.98822784423828,2.66,0.25,-3.61,4.49
20.990986824035645,2.59,0.4,-3.42,4.3
20.993567943572998,2.64,0.56,-3.29,4.25
20.996266841888428,2.84,0.46,-3.34,4.4
20.998515844345093,3.05,0.2,-3.27,4.47
21.070966720581055,3.17,0.13,-3.37,4.62
21.07292366027832,3.09,0.28,-3.4,4.6
21.0744788646698,2.77,0.49,-3.23,4.28
21.077051877975464,2.28,0.84,-2.76,3.67
21.079564809799194,2.12,1.0,-2.83,3.67
21.082040786743164,2.16,0.95,-2.85,3.7
21.084369659423828,2.24,0.86,-2.56,3.5
21.1010479927063,2.06,0.94,-2.52,3.38
21.102649688720703,1.8,0.88,-2.48,3.18
21.105398654937744,1.7,0.46,-2.02,2.67
21.17919683456421,1.67,0.0,-1.7,2.38
21.181193828582764,1.32,-0.31,-1.36,1.92
21.18273687362671,0.9,-0.61,-1.05,1.51
21.185441970825195,0.55,-0.92,-0.83,1.35
21.188137769699097,0.16,-1.19,-0.56,1.32
21.19072675704956,-0.09,-1.39,-0.46,1.46
21.193391799926758,-0.12,-1.54,-0.61,1.66
21.196070671081543,-0.04,-1.64,-0.42,1.69
21.198537826538086,0.18,-1.77,-0.16,1.78
21.20029067993164,0.47,-1.81,-0.04,1.87
21.28901767730713,0.61,-1.78,-0.25,1.89
21.290738821029663,0.67,-1.78,-0.42,1.94
21.29211688041687,0.81,-1.88,-0.25,2.06
21.294962882995605,1.09,-2.17,-0.01,2.42
21.29755187034607,2.25,-2.33,-1.95,3.78
21.299017906188965,1.06,-1.96,-6.59,6.95
21.30183696746826,-2.14,-1.85,-3.49,4.49
21.30448293685913,-2.22,-3.31,3.45,5.27
21.307132720947266,0.66,-5.02,3.14,5.95
21.309679985046387,1.66,-4.22,1.89,4.91
21.383625984191895,-1.57,-2.09,1.61,3.07
21.385631799697876,-5.99,-1.25,5.22,8.04
21.387110710144043,-7.86,-2.5,6.61,10.56
21.401550769805908,-9.38,-3.93,4.04,10.94
21.403162002563477,-10.64,-5.3,3.54,12.4
21.405842781066895,-8.36,-7.59,3.54,11.83
21.408134937286377,-4.09,-9.6,3.6,11.03
21.41082191467285,0.53,-8.47,4.48,9.59
21.41351890563965,1.95,-3.7,1.56,4.46
21.41589593887329,1.66,0.44,-2.67,3.17
21.487849712371826,1.36,3.39,-5.1,6.27
21.48981785774231,1.62,5.42,-6.27,8.44
21.491358757019043,2.61,6.24,-5.15,8.5
21.493868827819824,3.87,4.93,-3.08,6.98
21.496327877044678,4.45,2.17,-1.59,5.19
21.499090671539307,3.66,0.1,-1.18,3.84
21.50063991546631,2.05,-1.15,-0.74,2.46
21.51934576034546,0.36,-2.02,0.37,2.08
21.520963668823242,-0.99,-2.46,1.34,2.97
21.52398180961609,-1.33,-2.54,0.82,2.98
21.597731828689575,-0.81,-1.89,0.14,2.06
21.599700927734375,-0.01,-0.44,-0.04,0.44
21.60119080543518,0.65,0.62,0.0,0.89
21.60389280319214,1.0,1.12,-0.53,1.59
21.606563806533813,0.67,1.14,-0.86,1.57
21.609128952026367,0.38,0.7,-0.98,1.26
21.61179280281067,0.23,0.43,-0.97,1.08
21.614380836486816,0.02,0.24,-0.76,0.79
21.615879774093628,-0.32,0.17,-0.49,0.6
21.61888599395752,-0.73,0.34,-0.3,0.85
21.692471981048584,-0.93,0.53,0.02,1.07
21.694471836090088,-1.09,0.72,0.49,1.39
21.695964813232422,-1.43,0.73,0.99,1.88
21.69905686378479,-2.1,0.43,0.99,2.36
21.70048999786377,-2.68,0.13,0.29,2.69
21.718302726745605,-2.52,0.07,0.19,2.52
21.720077991485596,-1.7,0.09,0.4,1.74
21.72274684906006,-0.91,0.11,0.41,1.0
21.725435733795166,-0.41,0.2,0.79,0.91
21.728127002716064,-0.34,0.31,1.12,1.21
21.801995754241943,-0.74,0.32,0.95,1.24
21.80380392074585,-1.23,0.22,0.9,1.53
21.806225776672363,-1.49,0.1,1.08,1.84
21.8089017868042,-1.52,0.1,1.09,1.87
21.811299800872803,-1.3,0.41,0.76,1.56
21.814006805419922,-1.12,0.8,0.96,1.67
21.815459728240967,-1.18,0.9,0.61,1.6
21.818800926208496,-1.28,0.78,-0.37,1.54
21.82136869430542,-0.92,0.65,-0.11,1.13
21.82402276992798,-0.09,0.41,0.15,0.44
21.826663970947266,0.82,0.24,-0.26,0.89
21.901206970214844,1.36,0.31,-0.41,1.45
21.903222799301147,1.29,0.5,-0.51,1.47
21.904719829559326,0.75,0.54,-0.64,1.12
21.919508934020996,-0.01,0.24,-0.52,0.57
21.921188831329346,-0.67,-0.36,-0.87,1.15
21.924168825149536,-0.66,-0.82,-1.02,1.46
21.9266939163208,-0.03,-0.85,-0.53,1.0
21.92906880378723,0.5,-0.46,0.09,0.68
21.9323787689209,0.63,0.32,-0.4,0.81
21.93395185470581,0.8,1.17,-0.38,1.46
22.022599697113037,1.06,1.39,0.17,1.75
22.024370670318604,1.0,0.65,0.05,1.19
22.02590799331665,0.55,-0.49,-0.19,0.76
22.028754711151123,0.28,-1.08,-0.54,1.23
22.03130292892456,0.55,-1.1,-0.22,1.24
22.032752990722656,0.56,-1.45,0.35,1.59
22.03575086593628,-0.38,-2.2,-0.52,2.29
22.038376808166504,-1.39,-2.73,-1.14,3.26
22.04102373123169,-1.57,-3.04,-0.59,3.47
22.0436007976532,-1.39,-3.35,-0.76,3.7
22.117649793624878,-1.35,-3.93,-1.62,4.46
22.119661808013916,-1.41,-4.72,-2.51,5.52
22.1211519241333,-1.35,-6.61,-1.57,6.92
22.135777950286865,-1.01,-9.3,-0.44,9.36
22.13735866546631,-0.65,-10.18,-1.29,10.28
22.140076875686646,-1.15,-10.08,-1.24,10.22
22.14274287223816,-2.29,-9.65,-0.88,9.95
22.145412921905518,-3.29,-8.67,-1.04,9.33
22.14795184135437,-3.58,-6.16,-0.3,7.13
22.149491786956787,-3.18,-3.67,0.93,4.94
22.22272777557373,-2.81,-2.19,1.92,4.04
22.22469472885132,-2.84,-1.0,0.69,3.08
22.22618579864502,-2.93,0.53,-0.06,2.97
22.22905969619751,-2.07,2.38,1.1,3.34
22.232324838638306,-1.18,4.16,2.49,4.98
22.233834743499756,-1.46,5.89,3.05,6.79
22.236575841903687,-2.59,7.81,2.65,8.64
22.23922085762024,-3.48,9.68,2.73,10.64
22.241692781448364,-4.01,10.93,2.31,11.86
22.244349002838135,-5.75,9.63,1.93,11.38
22.31810998916626,-7.01,5.9,3.61,9.84
22.320116996765137,-6.73,2.87,3.81,8.24
22.32161784172058,-5.44,1.29,3.02,6.35
22.335036754608154,-3.46,0.88,2.02,4.1
22.336814880371094,-1.48,1.38,1.61,2.58
22.339504718780518,-0.16,2.09,1.4,2.52
22.342238903045654,0.44,2.66,0.75,2.79
22.344873905181885,0.87,3.13,0.22,3.25
22.347526788711548,1.33,3.24,0.12,3.5
22.3489887714386,1.52,2.95,0.02,3.31
22.423646926879883,1.26,2.48,-0.05,2.78
22.42563772201538,0.71,2.06,-0.09,2.18
22.427125930786133,0.12,1.67,-0.05,1.67
22.430007934570312,-0.29,1.23,-0.3,1.29
22.432588815689087,-0.46,0.82,-0.87,1.28
22.43416690826416,-0.28,0.66,-1.43,1.59
22.452462673187256,0.43,0.76,-1.9,2.09
22.454181671142578,1.55,1.01,-2.24,2.9
22.457133769989014,2.6,1.25,-2.47,3.79
22.459521770477295,3.19,1.48,-2.64,4.39
22.534766674041748,3.44,1.49,-3.08,4.85
22.53679585456848,3.56,1.25,-3.44,5.1
22.538291931152344,3.5,1.21,-3.14,4.85
22.541127681732178,3.46,1.12,-2.79,4.58
22.543795824050903,3.37,0.87,-2.53,4.3
22.546491861343384,3.09,0.8,-2.44,4.01
22.549338817596436,2.82,0.66,-2.35,3.72
22.550856828689575,2.82,0.29,-2.34,3.67
22.568696975708008,2.64,0.0,-2.11,3.37
22.57035183906555,2.29,-0.18,-1.92,2.99
22.643937826156616,1.94,-0.26,-1.68,2.57
22.64595079421997,1.7,-0.24,-1.52,2.29
22.64750385284424,1.69,-0.21,-1.63,2.35
22.64905595779419,1.9,-0.45,-2.15,2.9
22.65181589126587,2.12,-0.63,-1.78,2.83
22.654178857803345,2.26,-0.89,-1.67,2.94
22.65685796737671,2.53,-1.35,-2.15,3.58
22.659512996673584,2.67,-1.61,-1.98,3.69
22.66216468811035,2.69,-1.68,-1.57,3.53
22.664592742919922,2.65,-1.65,-1.43,3.43
22.666059970855713,2.35,-1.43,-1.34,3.05
22.74049687385559,1.91,-1.19,-0.97,2.45
22.742498874664307,1.51,-1.06,-0.75,1.99
22.743984699249268,1.1,-1.1,-0.57,1.65
22.74684977531433,0.68,-1.34,-0.09,1.5
22.749521732330322,0.42,-1.79,0.27,1.85
22.751040935516357,0.4,-2.27,0.4,2.33
22.76875066757202,0.72,-2.69,0.54,2.83
22.770341873168945,1.24,-2.95,0.49,3.23
22.773444652557373,2.07,-2.95,-0.35,3.62
22.775861740112305,1.99,-2.41,-3.97,5.05
22.849844932556152,-0.7,-1.82,-4.29,4.71
22.85189199447632,-1.72,-2.31,0.24,2.89
22.85339593887329,0.68,-4.0,2.7,4.87
22.85635471343994,2.87,-4.44,1.33,5.45
22.858953952789307,2.48,-2.94,2.11,4.38
22.86162281036377,0.41,-1.27,2.71,3.02
22.864284992218018,-1.65,-0.59,2.79,3.29
22.866861820220947,-3.17,-1.28,5.18,6.2
22.868488788604736,-4.58,-2.19,4.46,6.75
22.884856700897217,-7.19,-2.12,2.85,8.01
22.957018852233887,-8.84,-1.81,-0.24,9.02
22.959009647369385,-9.83,-2.31,-1.36,10.18
22.960542678833008,-7.4,-4.34,1.84,8.77
22.963345766067505,-3.11,-6.52,5.0,8.78
22.966187000274658,-0.04,-6.7,5.34,8.56
22.96771764755249,1.6,-4.76,1.24,5.17
23.001555919647217,2.74,-2.45,-2.15,4.25
23.00375270843506,3.2,-0.16,-2.36,3.97
23.006593704223633,2.69,1.94,-3.34,4.7
23.00933265686035,2.13,3.31,-5.23,6.54
23.08527374267578,2.49,3.65,-4.74,6.47
23.08734369277954,3.19,2.77,-2.13,4.73
23.0888409614563,2.81,1.19,-0.25,3.06
23.091530799865723,1.11,-0.02,0.41,1.18
23.094159841537476,-0.47,-0.93,1.12,1.52
23.09675168991089,-1.3,-1.72,0.93,2.34
23.099665880203247,-1.81,-1.97,0.19,2.68
23.10114097595215,-1.92,-1.36,-0.51,2.4
23.11855983734131,-1.1,-0.09,-0.43,1.18
23.12017297744751,0.06,0.82,-0.25,0.85
23.194584846496582,0.72,1.22,-0.26,1.44
23.196573734283447,0.72,1.11,-0.31,1.35
23.197948932647705,0.54,0.58,-0.53,0.95
23.199541807174683,0.33,0.2,-0.51,0.63
23.218483924865723,-0.11,0.18,-0.45,0.49
23.2201189994812,-0.72,0.24,-0.3,0.81
23.222895860671997,-1.36,0.5,0.22,1.46
23.225599765777588,-1.98,0.74,1.12,2.39
23.228250980377197,-2.78,0.84,1.48,3.25
23.230949878692627,-3.77,0.78,1.0,3.97
23.305559873580933,-3.97,0.57,0.37,4.02
23.307331800460815,-2.8,0.06,0.77,2.9
23.308827877044678,-1.46,-0.62,1.32,2.06
23.311660766601562,-0.88,-0.8,0.76,1.41
23.314308881759644,-0.71,-0.18,-0.02,0.73
23.316856861114502,-0.1,0.67,0.6,0.9
23.318325996398926,0.65,1.09,1.32,1.83
23.334481716156006,0.82,1.15,0.51,1.5
23.336073875427246,0.62,1.24,-0.08,1.38
23.33874487876892,0.29,1.37,0.4,1.45
23.4150288105011,-0.33,1.23,0.37,1.32
23.41698384284973,-1.19,0.83,-0.33,1.48
23.41866397857666,-1.6,0.31,-0.3,1.65
23.421310901641846,-1.29,-0.33,0.21,1.34
23.42394781112671,-0.62,-0.83,-0.1,1.04
23.426596879959106,0.24,-0.76,-0.09,0.8
23.429286003112793,0.82,-0.11,0.38,0.91
23.431769847869873,0.64,0.76,-0.33,1.04
23.43328881263733,0.33,1.45,-0.61,1.6
23.43618869781494,0.0,1.37,-0.28,1.39
23.511047840118408,-0.38,0.61,-1.02,1.24
23.51295280456543,-0.19,0.05,-0.76,0.78
23.514525890350342,0.34,-0.11,-0.01,0.35
23.516079902648926,0.69,-0.17,0.02,0.71
23.51844882965088,0.65,-0.35,0.0,0.73
23.5210599899292,0.04,-0.78,0.02,0.78
23.523582935333252,-0.66,-1.03,-0.46,1.3
23.526081800460815,-0.7,-0.53,-0.59,1.05
23.52859592437744,-0.24,0.11,-0.13,0.29
23.531229972839355,0.05,0.2,-0.44,0.48
23.53374981880188,0.27,-0.24,-0.99,1.05
23.607629776000977,0.53,-1.11,-1.03,1.6
23.60963773727417,0.64,-1.82,-1.42,2.39
23.61116600036621,0.71,-2.38,-1.3,2.8
23.61415672302246,0.53,-3.17,-0.9,3.33
23.616630792617798,0.09,-3.92,-1.04,4.05
23.61875581741333,-0.15,-4.8,-1.18,4.94
23.634690761566162,-0.08,-6.23,-0.91,6.29
23.636453866958618,0.05,-7.95,-0.58,7.97
23.63915491104126,-0.16,-9.35,-0.09,9.35
23.641907691955566,-0.89,-9.48,-0.43,9.53
23.71728277206421,-1.83,-8.92,-0.82,9.14
23.71932077407837,-2.61,-8.09,-0.71,8.53
23.72083878517151,-2.82,-6.84,-0.45,7.41
23.723822832107544,-2.62,-5.47,-0.31,6.07
23.72646188735962,-2.19,-3.91,-0.08,4.48
23.729208946228027,-2.01,-2.45,0.76,3.25
23.731688976287842,-2.49,-1.07,0.84,2.83
23.733160972595215,-3.08,0.24,0.56,3.13
23.736584663391113,-3.0,1.28,2.18,3.92
23.73921775817871,-2.39,2.44,3.0,4.54
23.81417179107666,-1.94,4.13,3.26,5.6
23.81619381904602,-2.7,6.23,3.68,7.72
23.817744731903076,-3.87,8.28,3.69,9.85
23.820812702178955,-4.23,10.03,2.8,11.23
23.82359266281128,-5.51,10.6,1.97,12.1
23.826239824295044,-7.34,8.34,3.24,11.57
23.82890272140503,-7.63,5.09,4.16,10.07
23.83150577545166,-6.82,3.01,3.84,8.38
23.833879947662354,-5.45,1.94,2.94,6.48
23.83549976348877,-3.78,1.57,2.38,4.73
23.923523902893066,-2.43,1.65,2.24,3.69
23.925355911254883,-1.57,1.88,1.68,2.97
23.9268536567688,-0.93,2.19,0.93,2.55
23.929743766784668,-0.28,2.35,0.35,2.39
23.93221092224121,0.41,2.19,0.03,2.22
23.93366765975952,1.12,1.66,-0.3,2.02
23.936744689941406,1.45,1.08,-0.52,1.88
23.939329862594604,1.25,0.57,-0.76,1.57
23.941934823989868,0.73,0.03,-1.03,1.26
23.944567680358887,0.19,-0.45,-1.4,1.48
24.0203378200531,-0.09,-0.81,-1.97,2.13
24.022369861602783,0.08,-1.03,-2.31,2.53
24.02381181716919,0.49,-1.03,-2.44,2.69
24.026384830474854,1.01,-0.91,-2.55,2.88
24.028961658477783,1.66,-0.75,-2.77,3.31
24.031755924224854,2.26,-0.27,-3.19,3.91
24.033249855041504,2.94,0.07,-3.62,4.66
24.03663396835327,3.59,0.06,-3.69,5.14
24.039265871047974,4.07,-0.16,-3.5,5.37
24.04180383682251,4.09,-0.38,-3.38,5.31
24.117919921875,3.72,-0.31,-3.36,5.02
24.119897842407227,3.33,-0.22,-3.27,4.67
24.12134075164795,2.79,0.03,-2.75,3.91
24.124213695526123,2.22,0.44,-2.14,3.11
24.12678098678589,1.97,0.65,-2.0,2.88
24.12946081161499,2.04,0.78,-1.86,2.86
24.13201665878296,2.15,1.07,-1.67,2.92
24.133452892303467,2.03,1.32,-1.65,2.93
24.136783838272095,1.86,1.49,-1.87,3.02
24.13939666748047,1.61,1.69,-1.76,2.92
24.215152740478516,1.2,1.64,-1.42,2.47
24.21712064743042,0.97,1.04,-1.47,2.04
24.218880653381348,0.94,0.19,-1.44,1.73
24.22161078453064,1.11,-0.81,-1.07,1.74
24.224170684814453,1.5,-1.82,-0.87,2.51
24.226821899414062,1.95,-2.49,-0.99,3.31
24.229517936706543,2.26,-2.53,-1.05,3.55
24.23206877708435,2.53,-2.27,-1.03,3.55
24.233402729034424,2.66,-1.96,-1.29,3.54
24.23621678352356,2.59,-1.75,-1.41,3.42
24.311739921569824,2.64,-1.81,-1.12,3.39
24.31361484527588,2.62,-1.95,-1.16,3.46
24.315136909484863,2.35,-2.15,-1.32,3.44
24.316661834716797,2.13,-2.37,-0.82,3.29
24.33541178703308,2.22,-2.5,-0.72,3.42
24.337015867233276,2.42,-2.46,-0.53,3.49
24.339863777160645,3.13,-2.3,-0.96,4.0
24.342538833618164,2.42,-1.87,-5.89,6.63
24.345159769058228,-0.84,-1.42,-6.7,6.9
24.347859859466553,-4.18,-1.86,-1.12,4.71
24.35042977333069,-4.28,-3.51,3.22,6.4
24.426394939422607,-3.59,-4.94,3.58,7.07
24.428507804870605,-4.8,-4.63,4.24,7.9
24.430046796798706,-4.7,-2.53,4.95,7.27
24.433575868606567,-3.94,-0.5,2.67,4.78
24.435072898864746,-4.55,-0.22,2.12,5.02
24.451871871948242,-4.16,-3.19,8.45,9.94
24.4534969329834,-3.83,-7.47,10.06,13.1
24.456207752227783,-4.38,-10.56,4.65,12.34
24.458841800689697,-0.25,-10.69,0.8,10.72
24.4615159034729,4.04,-6.74,-2.86,8.36
24.538090705871582,3.5,-1.88,-4.95,6.34
24.54011297225952,0.97,2.25,-6.29,6.75
24.54160976409912,0.25,5.49,-7.84,9.57
24.544484853744507,2.23,6.88,-6.74,9.88
24.54714298248291,4.87,5.84,-1.46,7.74
24.55022668838501,5.71,2.75,2.39,6.77
24.551731824874878,3.67,-0.22,0.95,3.79
24.569129943847656,0.8,-1.6,-0.42,1.83
24.570769786834717,-0.89,-2.1,-0.1,2.28
24.57349967956543,-1.27,-2.13,0.33,2.5
24.653185844421387,-1.23,-1.43,0.31,1.91
24.655160903930664,-0.93,-0.23,0.13,0.96
24.65669083595276,-0.69,0.81,-0.45,1.15
24.659544944763184,-0.12,1.31,-0.16,1.32
24.662181854248047,0.29,1.18,0.08,1.21
24.664814949035645,0.34,0.5,-0.16,0.62
24.667491912841797,0.2,0.0,-0.34,0.39
24.668953895568848,0.15,-0.28,-0.18,0.36
24.68569564819336,0.22,-0.52,-0.09,0.57
24.68732786178589,0.08,-0.54,-0.03,0.54
24.771058797836304,-0.39,-0.18,-0.02,0.43
24.77306580543518,-0.63,0.12,-0.28,0.69
24.77452778816223,-1.01,0.26,-0.35,1.1
24.777370929718018,-1.55,0.23,-0.13,1.57
24.780051708221436,-1.7,0.01,-0.09,1.7
24.782497882843018,-1.56,-0.28,0.01,1.58
24.78393578529358,-1.55,-0.33,0.03,1.58
24.786963939666748,-1.13,-0.14,0.06,1.14
24.789543867111206,-0.58,0.05,0.44,0.72
24.791772842407227,-0.46,0.12,0.24,0.53
24.875658988952637,-0.46,0.12,-0.26,0.54
24.877365827560425,-0.47,0.0,-0.12,0.48
24.87892770767212,-0.65,-0.2,-0.24,0.72
24.88162088394165,-0.65,-0.3,-0.38,0.81
24.883970737457275,-0.44,-0.26,-0.15,0.53
24.886093854904175,-0.52,-0.23,-0.17,0.59
24.903072834014893,-0.74,-0.33,-0.27,0.85
24.904661655426025,-0.77,-0.55,-0.36,1.01
24.907787799835205,-0.72,-0.86,-0.16,1.13
24.91035795211792,-0.78,-1.07,-0.19,1.33
24.994553804397583,-0.88,-1.09,-0.32,1.43
24.996604919433594,-0.7,-1.08,-0.11,1.29
24.998119831085205,-0.28,-1.23,0.17,1.27
25.000834941864014,-0.1,-1.44,0.43,1.5
25.002304792404175,-0.31,-1.7,0.7,1.86
25.019237995147705,-0.65,-2.05,1.06,2.39
25.02085280418396,-1.14,-2.37,1.0,2.81
25.023995876312256,-1.75,-2.46,0.85,3.13
25.026481866836548,-2.39,-2.46,0.85,3.53
25.028647899627686,-2.98,-2.38,0.49,3.84
25.113674879074097,-3.33,-2.24,0.52,4.04
25.11573886871338,-3.59,-2.25,0.58,4.27
25.11723279953003,-3.86,-2.52,0.59,4.64
25.12056279182434,-4.22,-3.01,1.04,5.28
25.12299084663391,-4.59,-3.6,1.58,6.04
25.125643730163574,-4.85,-4.34,2.06,6.82
25.128321647644043,-4.8,-5.18,2.57,7.51
25.130982875823975,-4.64,-5.97,3.1,8.17
25.13398790359497,-5.07,-6.35,3.19,8.72
25.135884761810303,-6.53,-6.49,2.6,9.56
25.234110832214355,-8.19,-6.73,1.33,10.68
25.236047744750977,-9.06,-7.22,0.33,11.58
25.237542867660522,-8.62,-7.19,-0.44,11.23
25.240529775619507,-7.48,-7.37,-2.08,10.7
25.24324083328247,-7.5,-8.49,-1.71,11.45
25.245893001556396,-8.01,-8.66,-1.85,11.94
25.24858283996582,-7.94,-7.62,-2.56,11.29
25.251144886016846,-7.31,-5.13,-2.05,9.16
25.252761840820312,-6.51,-2.34,-1.56,7.09
25.26857280731201,-5.49,-0.16,-2.9,6.21
25.27017068862915,-4.39,1.69,-4.17,6.28
25.35514497756958,-3.13,3.39,-4.39,6.36
25.35706377029419,-1.51,5.1,-4.33,6.85
25.35850477218628,-0.73,6.14,-4.77,7.8
25.361320972442627,-2.57,6.14,-2.41,7.07
25.36355686187744,-4.38,5.0,-0.18,6.64
25.365966796875,-4.38,3.61,-1.2,5.8
25.367279767990112,-3.62,3.23,-1.86,5.19
25.370686769485474,-3.27,3.16,-0.88,4.63
25.373287677764893,-3.69,2.71,0.1,4.57
25.37593698501587,-4.46,2.2,-0.23,4.97
25.46075677871704,-5.02,1.91,-1.34,5.53
25.462726831436157,-5.21,1.93,-1.96,5.89
25.464221954345703,-5.27,2.17,-1.95,6.02
25.46741485595703,-5.44,2.35,-1.95,6.23
25.46880292892456,-5.58,2.2,-2.37,6.44
25.48744487762451,-5.66,1.88,-3.01,6.68
25.489070892333984,-5.6,1.48,-3.51,6.77
25.49170970916748,-5.43,1.1,-3.6,6.6
25.49430799484253,-5.27,0.87,-3.67,6.48
25.49685573577881,-5.14,0.66,-3.86,6.46
25.581013679504395,-4.89,0.36,-4.17,6.43
25.582937717437744,-4.39,-0.05,-4.78,6.49
25.584418773651123,-3.58,-0.56,-5.54,6.61
25.58788299560547,-2.57,-1.18,-6.03,6.66
25.590646743774414,-1.56,-1.89,-6.52,6.96
25.59331464767456,-0.78,-2.58,-7.01,7.51
25.59603786468506,-0.25,-3.16,-7.3,7.95
25.59865093231201,0.21,-3.35,-7.34,8.07
25.60125184059143,0.63,-2.93,-7.21,7.8
25.60291290283203,0.99,-2.19,-6.76,7.17
25.701165676116943,1.13,-1.42,-6.44,6.69
25.70341968536377,1.28,-0.95,-6.37,6.56
25.70486068725586,1.57,-0.91,-6.09,6.35
25.707773685455322,1.95,-1.2,-5.79,6.22
25.710386753082275,2.36,-1.55,-5.45,6.13
25.713034868240356,2.64,-1.66,-5.06,5.94
25.71556282043457,2.97,-1.83,-5.03,6.12
25.718185901641846,3.46,-1.95,-5.1,6.46
25.7198166847229,3.68,-1.87,-4.69,6.24
25.73659086227417,3.73,-1.83,-4.23,5.92
25.81983184814453,3.75,-1.78,-4.17,5.88
25.821870803833008,3.64,-1.53,-4.28,5.82
25.823354721069336,3.61,-1.01,-4.56,5.9
25.826199769973755,3.83,-0.23,-4.61,5.99
25.828604698181152,3.98,0.57,-4.96,6.38
25.831259727478027,4.01,1.45,-5.29,6.79
25.83419895172119,4.44,1.93,-5.33,7.2
25.835675716400146,4.2,1.88,-5.72,7.34
25.853498935699463,3.87,1.84,-5.81,7.21
25.8550808429718,3.62,1.8,-5.84,7.1
25.9389066696167,3.36,1.77,-5.74,6.88
25.9408917427063,3.18,1.8,-6.0,7.02
25.94237995147705,2.55,1.55,-5.82,6.54
25.94532585144043,3.33,1.31,-7.76,8.54
25.94803285598755,3.26,1.37,-5.94,6.91
25.951087951660156,0.31,-0.2,2.73,2.75
25.952553749084473,-0.1,-3.33,7.24,7.96
25.971234798431396,3.22,-7.0,3.88,8.62
25.972797870635986,5.65,-10.15,-0.64,11.63
25.975921869277954,6.41,-10.88,-0.86,12.65
26.058871746063232,4.89,-8.03,-2.64,9.76
26.060860872268677,2.91,-3.01,-4.81,6.37
26.062360763549805,2.99,0.75,-4.58,5.52
26.065391778945923,3.52,3.16,-4.38,6.44
26.068156719207764,3.23,4.79,-4.56,7.36
26.069755792617798,2.27,5.66,-4.84,7.78
26.087517738342285,1.76,4.86,-4.42,6.8
26.089175701141357,2.46,2.25,-2.42,4.11
26.092087745666504,2.93,-0.68,-0.78,3.1
26.094753742218018,2.35,-2.76,0.58,3.67
26.177268981933594,1.38,-3.57,1.7,4.18
26.179293870925903,0.95,-3.37,1.82,3.94
26.18078374862671,0.89,-2.23,1.49,2.82
26.183668851852417,0.8,-0.79,0.87,1.42
26.1851487159729,0.43,0.15,-1.46,1.52
26.187973976135254,0.19,0.64,-3.33,3.39
26.190634727478027,0.31,0.82,-2.76,2.89
26.193235874176025,0.7,0.79,-1.37,1.72
26.19587993621826,1.1,0.63,-1.54,1.99
26.19856882095337,0.94,0.3,-1.25,1.59
26.2012357711792,0.35,-0.2,0.05,0.4
26.28284788131714,-0.41,-0.62,0.36,0.82
26.284864902496338,-1.23,-0.7,-0.06,1.41
26.28643274307251,-1.9,-0.53,-0.11,1.97
26.289556980133057,-2.12,-0.34,-0.03,2.14
26.292181968688965,-1.89,-0.11,0.0,1.89
26.294826984405518,-1.46,0.09,0.09,1.46
26.297533988952637,-0.96,0.07,0.09,0.96
26.299882888793945,-0.67,-0.07,-0.04,0.67
26.30214285850525,-0.42,-0.06,-0.03,0.42
26.30463480949402,0.01,0.11,-0.05,0.12
26.38648271560669,0.29,0.38,-0.45,0.65
26.388507843017578,0.32,0.43,-0.64,0.83
26.389946937561035,0.28,0.25,-0.27,0.46
26.392943859100342,0.32,0.1,-0.03,0.33
26.395610809326172,0.04,-0.02,-0.31,0.31
26.398237705230713,-0.59,-0.04,-0.34,0.68
26.401217937469482,-0.98,-0.08,-0.24,1.01
26.40269184112549,-1.17,-0.21,-0.47,1.27
26.421113967895508,-1.4,-0.32,-0.43,1.49
26.42267084121704,-1.59,-0.36,-0.07,1.63
26.50427484512329,-1.58,-0.32,0.02,1.61
26.506526947021484,-1.42,-0.3,-0.31,1.48
26.50802183151245,-1.28,-0.37,-0.3,1.36
26.51080584526062,-0.97,-0.49,-0.06,1.08
26.513444900512695,-0.7,-0.59,-0.56,1.07
26.516186714172363,-0.4,-0.64,-0.59,0.95
26.518728733062744,0.09,-0.72,-0.16,0.74
26.520280838012695,0.14,-0.73,-0.48,0.88
26.537807941436768,-0.16,-0.72,-0.47,0.87
26.539467811584473,-0.38,-0.78,-0.43,0.96
26.621079921722412,-0.65,-0.87,-0.34,1.13
26.623076915740967,-0.99,-0.93,-0.24,1.37
26.624573707580566,-1.35,-0.89,-0.38,1.66
26.627368927001953,-1.58,-0.8,-0.19,1.78
26.630026817321777,-1.89,-0.88,0.23,2.09
26.63274097442627,-2.21,-1.08,0.44,2.49
26.63526678085327,-2.54,-1.3,0.52,2.9
26.63674283027649,-2.96,-1.42,0.58,3.33
26.654613971710205,-3.26,-1.64,0.61,3.69
26.656320810317993,-3.63,-1.89,0.36,4.1
26.73811984062195,-3.96,-2.27,0.2,4.56
26.740150928497314,-4.16,-2.72,0.16,4.97
26.741639852523804,-4.15,-3.26,-0.1,5.27
26.74459171295166,-4.07,-3.9,-0.24,5.64
26.747328758239746,-3.93,-4.84,-0.1,6.23
26.74993896484375,-3.7,-6.02,0.36,7.07
26.751391887664795,-4.02,-7.28,0.56,8.33
26.754734992980957,-5.57,-8.15,0.24,9.87
26.75732684135437,-7.76,-8.39,-0.46,11.43
26.75995397567749,-9.11,-8.02,-1.41,12.21
26.842041969299316,-9.34,-7.08,-2.71,12.02
26.844022750854492,-9.04,-5.69,-1.85,10.84
26.845507860183716,-9.71,-5.64,-0.75,11.25
26.848328828811646,-9.71,-5.61,-1.49,11.31
26.85126495361328,-8.8,-4.85,-2.18,10.28
26.85328769683838,-7.01,-2.93,-1.61,7.76
26.870826721191406,-5.18,-1.11,-1.89,5.62
26.87244987487793,-3.59,0.39,-2.77,4.55
26.875476837158203,-1.74,2.07,-3.6,4.5
26.878118991851807,-0.18,3.86,-4.17,5.68
26.961001873016357,-1.05,5.06,-2.95,5.95
26.962994813919067,-4.37,5.33,-1.29,7.01
26.964481830596924,-6.37,4.38,-2.63,8.16
26.96720600128174,-6.43,3.63,-2.41,7.76
26.96871781349182,-5.64,3.32,-0.76,6.58
26.971783876419067,-4.7,2.83,-0.3,5.49
26.97431778907776,-3.98,2.2,-0.98,4.65
26.976975917816162,-3.39,1.7,-1.47,4.06
26.979612827301025,-3.05,1.45,-1.09,3.54
26.982308864593506,-2.87,1.13,-0.97,3.23
27.0653178691864,-2.71,0.82,-1.71,3.3
27.067134857177734,-2.5,0.7,-2.54,3.63
27.068686962127686,-2.12,0.74,-2.83,3.61
27.07175087928772,-1.67,0.84,-2.94,3.48
27.07429790496826,-1.58,1.04,-3.08,3.61
27.07694673538208,-2.04,1.36,-3.18,4.01
27.07962679862976,-2.62,1.69,-3.37,4.59
27.082284927368164,-2.98,1.87,-3.35,4.85
27.08489465713501,-3.07,1.83,-3.06,4.7
27.087547779083252,-2.84,1.33,-3.07,4.38
27.0902099609375,-2.35,0.37,-3.56,4.28
27.172186851501465,-1.69,-0.82,-4.32,4.71
27.174145698547363,-0.65,-2.19,-4.92,5.42
27.175665855407715,0.64,-3.36,-5.2,6.22
27.17862582206726,1.83,-4.01,-5.55,7.08
27.181259870529175,2.62,-3.66,-6.2,7.66
27.1838116645813,3.1,-2.46,-6.48,7.59
27.185266971588135,3.6,-1.4,-6.31,7.39
27.18828582763672,4.01,-1.01,-6.33,7.56
27.190964698791504,4.2,-0.94,-6.18,7.53
27.193535804748535,4.22,-0.94,-5.84,7.26
27.27578067779541,4.25,-1.12,-5.52,7.05
27.27768588066101,4.23,-1.21,-5.04,6.69
27.279209852218628,4.12,-1.07,-4.79,6.4
27.28198480606079,4.21,-0.8,-4.81,6.44
27.284897804260254,4.39,-0.31,-4.44,6.25
27.28706169128418,4.64,0.15,-3.92,6.07
27.303196907043457,5.0,0.44,-3.84,6.31
27.304897785186768,5.23,0.68,-3.84,6.52
27.307390689849854,5.27,0.87,-3.73,6.51
27.309979915618896,5.15,0.81,-3.44,6.24
27.392213821411133,4.8,0.58,-3.07,5.72
27.394251823425293,4.32,0.25,-3.24,5.4
27.395752906799316,4.18,-0.09,-2.98,5.13
27.398918867111206,4.28,-0.16,-2.6,5.01
27.401832818984985,4.39,-0.31,-3.03,5.34
27.40332579612732,4.64,-0.5,-3.02,5.55
27.42050075531006,4.76,-0.42,-2.55,5.41
27.422119855880737,5.09,-0.27,-2.85,5.83
27.424755811691284,4.94,-0.23,-3.27,5.92
27.42743492126465,4.96,-0.36,-3.85,6.28
27.509577751159668,5.84,-0.3,-5.1,7.75
27.51156187057495,6.18,-0.69,-0.67,6.25
27.513062953948975,4.68,-2.7,4.05,6.75
27.515952825546265,1.55,-4.43,4.05,6.19
27.51838493347168,-0.52,-5.19,3.37,6.2
27.52051591873169,-0.98,-5.33,1.72,5.68
27.537341833114624,-0.88,-4.82,0.96,4.99
27.53901195526123,-1.02,-3.44,0.39,3.6
27.541826725006104,-0.55,-1.44,-1.24,1.97
27.544375896453857,0.95,0.65,-2.09,2.38
27.62614679336548,2.09,2.51,-1.71,3.68
27.628286838531494,2.52,3.9,-2.7,5.37
27.629759788513184,2.9,4.67,-4.35,7.01
27.632619857788086,3.52,4.54,-4.41,7.24
27.635241985321045,4.34,2.81,-3.1,6.02
27.636743783950806,4.78,-0.01,-2.27,5.29
27.65502166748047,4.59,-2.71,-1.63,5.57
27.656717777252197,3.87,-4.26,-0.72,5.8
27.659637928009033,2.39,-3.99,0.2,4.65
27.662047863006592,0.84,-2.41,0.61,2.62
27.744013786315918,0.11,-0.73,0.87,1.14
27.746068000793457,0.12,0.49,1.05,1.16
27.747514724731445,0.05,1.26,0.71,1.44
27.750486850738525,-0.24,1.55,0.02,1.56
27.751945972442627,-0.38,1.26,-1.02,1.66
27.755310773849487,-0.27,0.72,-1.77,1.92
27.75784969329834,-0.04,0.19,-1.77,1.78
27.76023578643799,0.26,-0.36,-1.27,1.34
27.762916803359985,0.5,-0.78,-0.9,1.29
27.76560068130493,0.53,-0.91,-0.67,1.24
27.8481388092041,0.5,-0.54,-0.48,0.87
27.849963665008545,0.2,-0.12,-0.49,0.54
27.852304935455322,-0.1,-0.01,-0.45,0.46
27.8538818359375,-0.03,-0.11,-0.08,0.13
27.871355772018433,0.15,-0.26,0.33,0.44
27.873040676116943,0.23,-0.33,0.41,0.57
27.876059770584106,0.07,-0.37,0.23,0.44
27.87867784500122,-0.15,-0.37,0.12,0.41
27.881089687347412,-0.36,-0.16,0.16,0.42
27.883747816085815,-0.66,0.08,0.13,0.67
27.965582847595215,-0.81,0.26,0.19,0.87
27.967399835586548,-0.85,0.39,0.25,0.96
27.96889877319336,-1.13,0.47,0.28,1.25
27.971948862075806,-1.66,0.44,0.47,1.78
27.974687814712524,-2.01,0.35,0.24,2.05
27.97733497619629,-1.99,0.24,0.16,2.01
27.97997784614563,-1.89,0.1,0.68,2.01
27.982379913330078,-2.01,0.02,0.94,2.21
27.985569953918457,-2.26,0.19,0.87,2.42
27.98710584640503,-2.37,0.47,0.95,2.59
28.005703926086426,-2.34,0.7,0.75,2.55
28.087580680847168,-2.01,0.82,0.62,2.25
28.08959984779358,-1.37,0.81,0.79,1.77
28.091182708740234,-0.86,0.75,0.88,1.44
28.094042778015137,-0.69,0.6,0.73,1.17
28.09665584564209,-0.69,0.39,0.52,0.94
28.09903383255005,-0.75,0.1,0.57,0.94
28.10196590423584,-0.83,-0.24,0.48,0.98
28.10421586036682,-0.7,-0.38,0.15,0.81
28.120975971221924,-0.39,-0.19,0.07,0.43
28.122599840164185,-0.12,0.21,-0.17,0.29
28.205018997192383,-0.01,0.72,-0.51,0.88
28.207032680511475,-0.16,1.23,-0.49,1.33
28.20853090286255,-0.39,1.54,-0.27,1.61
28.2113618850708,-0.54,1.48,-0.33,1.6
28.21405577659607,-0.59,1.09,-0.08,1.24
28.216664791107178,-0.7,0.63,0.38,1.01
28.219332695007324,-0.92,0.34,0.01,0.98
28.22086191177368,-0.87,0.35,-0.88,1.28
28.23723268508911,-0.18,0.31,0.18,0.4
28.238845825195312,0.5,-0.09,0.62,0.8
28.32106065750122,0.91,-0.49,-0.11,1.03
28.32305383682251,1.2,-0.36,-0.08,1.25
28.32458186149597,1.55,0.35,0.0,1.58
28.327391862869263,1.86,1.04,0.41,2.17
28.330047845840454,1.63,1.49,0.11,2.21
28.332737922668457,1.27,1.73,-0.27,2.16
28.335684776306152,0.95,1.3,0.06,1.61
28.337186813354492,0.25,0.04,-0.19,0.31
28.354392766952515,-0.45,-0.8,-0.65,1.12
28.356034755706787,-0.29,-0.52,-0.36,0.69
28.438315868377686,0.33,0.03,-0.03,0.33
28.44034194946289,0.62,-0.01,-0.51,0.8
28.44183874130249,0.63,-0.72,-1.14,1.48
28.44465684890747,0.62,-1.44,-1.6,2.24
28.44732093811035,0.75,-1.86,-1.85,2.72
28.449952840805054,0.9,-2.55,-1.52,3.1
28.452570915222168,0.66,-3.67,-1.4,3.98
28.454073905944824,0.4,-4.37,-1.39,4.6
28.47164487838745,0.5,-4.88,-1.3,5.07
28.473334789276123,0.78,-6.07,-0.54,6.14
28.555624961853027,0.79,-7.49,-0.73,7.56
28.557576656341553,0.3,-8.44,-1.01,8.5
28.559131860733032,-0.96,-8.73,-1.2,8.86
28.561651706695557,-1.97,-8.79,-1.65,9.15
28.564353942871094,-2.39,-8.7,-0.85,9.06
28.566982746124268,-2.08,-7.9,0.06,8.16
28.569575786590576,-1.68,-5.81,-0.07,6.04
28.571107864379883,-1.7,-3.98,1.36,4.53
28.588356971740723,-1.77,-2.63,2.25,3.88
28.589955806732178,-1.99,-1.23,1.66,2.86
28.673231840133667,-2.05,0.11,2.61,3.32
28.67527985572815,-1.71,1.18,3.81,4.33
28.676713943481445,-1.74,2.59,3.81,4.92
28.679271697998047,-2.88,4.28,4.76,7.01
28.681879997253418,-4.58,6.04,5.1,9.13
28.68443489074707,-5.03,8.0,4.92,10.65
28.68589973449707,-4.99,9.83,3.34,11.51
28.68917465209961,-7.24,9.88,2.95,12.59
28.69154977798462,-9.3,6.9,4.04,12.26
28.694119930267334,-8.89,3.7,4.03,10.43
28.77765679359436,-6.75,1.76,3.47,7.79
28.779732704162598,-4.04,0.94,2.71,4.95
28.781202793121338,-1.42,0.8,2.19,2.72
28.784066677093506,0.66,1.13,1.64,2.09
28.786592960357666,2.08,1.65,0.89,2.8
28.78819179534912,2.73,2.21,0.47,3.54
28.80547285079956,2.61,2.58,0.2,3.67
28.80708384513855,2.38,2.61,-0.01,3.53
28.809820652008057,2.09,2.5,-0.22,3.26
28.81249189376831,1.65,2.43,-0.19,2.94
28.89790177345276,1.24,2.32,-0.27,2.64
28.899863719940186,0.64,2.22,-0.44,2.35
28.9013888835907,0.16,2.07,-0.71,2.19
28.902928829193115,0.24,1.76,-1.04,2.05
28.92134666442871,0.72,1.44,-1.54,2.22
28.922982692718506,1.31,1.15,-1.99,2.64
28.92574167251587,1.87,0.83,-2.49,3.22
28.9284348487854,2.47,0.47,-3.11,3.99
28.931091785430908,3.15,0.18,-3.35,4.6
28.9337158203125,3.69,0.15,-3.14,4.84
28.936442852020264,4.31,0.06,-3.66,5.65
29.020975828170776,4.86,-0.17,-4.2,6.42
29.023019790649414,5.2,-0.48,-4.14,6.66
29.024585723876953,5.33,-0.77,-3.84,6.61
29.027385711669922,5.03,-0.73,-3.84,6.37
29.02979564666748,4.39,-0.24,-4.03,5.96
29.03248882293701,3.7,0.32,-3.49,5.09
29.035074710845947,3.14,0.56,-2.94,4.33
29.036524772644043,2.65,0.53,-2.99,4.03
29.039565801620483,2.4,0.11,-3.16,3.96
29.04216480255127,2.39,-0.27,-3.06,3.89
29.125892877578735,2.39,-0.51,-2.92,3.8
29.12776279449463,2.38,-0.72,-2.7,3.67
29.12923765182495,2.19,-0.83,-2.55,3.46
29.131942749023438,1.88,-0.88,-2.2,3.02
29.134500980377197,1.43,-0.85,-1.76,2.42
29.135973930358887,1.11,-0.76,-1.43,1.96
29.139370918273926,0.85,-0.86,-1.21,1.71
29.14202380180359,0.65,-1.19,-1.12,1.75
29.144664764404297,0.51,-1.6,-0.85,1.88
29.147316932678223,0.42,-2.09,-0.65,2.22
29.232167720794678,0.46,-2.5,-1.02,2.73
29.23409676551819,0.51,-2.64,-1.19,2.94
29.235597848892212,0.83,-2.63,-0.86,2.88
29.23716688156128,1.34,-2.39,-0.71,2.83
29.255375862121582,1.89,-1.98,-0.69,2.82
29.25701880455017,2.56,-1.69,-0.7,3.14
29.260047912597656,3.5,-1.45,-2.95,4.8
29.262707710266113,1.87,-1.08,-6.08,6.45
29.265378952026367,-0.81,-1.11,-2.58,2.92
29.268142700195312,-1.05,-2.26,3.43,4.23
29.351273775100708,1.16,-3.67,2.74,4.72
29.35324788093567,1.79,-3.25,2.85,4.67
29.35497283935547,-0.41,-1.68,4.14,4.48
29.357871770858765,-4.35,-0.8,5.27,6.88
29.360562801361084,-7.62,-1.25,5.5,9.48
29.363189697265625,-10.7,-1.99,2.59,11.18
29.365943908691406,-11.77,-2.03,-1.42,12.02
29.368335723876953,-10.64,-1.92,-1.56,10.92
29.370901823043823,-8.31,-4.45,3.56,10.07
29.373474836349487,-4.4,-7.41,5.13,10.02
29.45763874053955,-1.42,-8.13,2.25,8.55
29.45964479446411,1.51,-7.82,2.47,8.33
29.46113681793213,4.18,-6.43,1.23,7.76
29.463942766189575,5.23,-3.23,-1.6,6.35
29.466591835021973,4.83,0.91,-3.91,6.28
29.469552993774414,4.4,3.99,-6.23,8.6
29.471017837524414,4.92,5.35,-6.27,9.59
29.489147663116455,6.13,4.86,-4.45,8.99
29.490749835968018,6.57,2.65,-2.06,7.37
29.49383282661438,5.09,0.62,-0.47,5.14
29.57895278930664,2.25,-0.47,0.02,2.29
29.580981731414795,-0.53,-1.36,0.19,1.47
29.582479000091553,-2.29,-2.38,0.33,3.31
29.58548879623413,-2.09,-3.55,0.48,4.14
29.587003707885742,-1.15,-3.19,0.4,3.41
29.590006828308105,-1.2,-0.58,0.44,1.4
29.592702865600586,-1.52,1.47,0.17,2.12
29.595370769500732,-1.32,2.31,0.3,2.67
29.597988843917847,-0.88,2.31,0.37,2.49
29.600504875183105,-0.42,1.54,0.09,1.59
29.6859188079834,-0.21,0.82,-0.37,0.92
29.688249826431274,0.01,0.37,-0.49,0.61
29.689721822738647,0.0,0.16,-0.06,0.17
29.69253396987915,-0.5,0.09,0.61,0.79
29.69516372680664,-1.38,0.18,0.89,1.65
29.69779682159424,-2.45,0.33,1.17,2.73
29.70052480697632,-3.12,0.25,1.14,3.33
29.70308780670166,-3.09,0.0,0.65,3.15
29.70467472076416,-2.69,-0.13,0.64,2.76
29.72115993499756,-2.2,-0.04,0.94,2.39
29.80464267730713,-1.7,0.17,0.78,1.87
29.806649684906006,-1.19,0.46,0.62,1.41
29.808199882507324,-0.74,0.68,0.79,1.27
29.811344861984253,-0.45,0.86,0.45,1.06
29.814085960388184,-0.05,1.13,0.4,1.19
29.816757678985596,0.38,1.37,0.76,1.61
29.819715976715088,0.5,1.25,0.71,1.52
29.821221828460693,0.39,0.55,0.66,0.94
29.838945865631104,-0.03,-0.29,0.27,0.39
29.84055995941162,-0.45,-0.72,-0.61,1.04
29.84332799911499,-0.58,-0.61,-0.82,1.17
29.927320957183838,-0.31,-0.04,-1.05,1.09
29.929356813430786,0.36,0.69,-0.71,1.05
29.930864810943604,1.0,1.21,0.08,1.57
29.933838844299316,1.17,1.41,-0.31,1.85
29.936468839645386,0.92,1.39,-0.4,1.71
29.93795394897461,0.31,1.03,-0.25,1.1
29.955062866210938,-0.36,0.25,-0.34,0.55
29.95668077468872,-0.83,-1.04,-0.21,1.34
29.959165811538696,-1.05,-2.15,-0.4,2.42
29.961941719055176,-0.6,-2.32,-0.49,2.44
30.0471248626709,0.56,-1.46,-0.11,1.56
30.049163818359375,1.46,-0.15,0.4,1.52
30.05066967010498,1.5,1.05,-0.14,1.83
30.05343198776245,1.16,1.97,-0.32,2.3
30.0550057888031,0.74,2.06,-0.04,2.18
30.07174587249756,0.34,1.31,-0.32,1.39
30.073471784591675,0.1,0.1,-0.22,0.26
30.076146841049194,-0.26,-1.28,0.04,1.3
30.078802824020386,-0.81,-2.4,-0.25,2.54
30.08145570755005,-1.2,-2.74,-0.71,3.07
30.16517686843872,-1.03,-2.32,-0.76,2.64
30.167115688323975,-0.6,-1.99,-0.4,2.11
30.168668746948242,-0.59,-2.47,-0.45,2.57
30.17179584503174,-0.69,-3.45,-0.88,3.62
30.190255880355835,-0.7,-4.8,-0.7,4.9
30.192144870758057,-0.69,-6.26,-0.66,6.33
30.194597721099854,-0.76,-7.1,-1.04,7.21
30.19707179069519,-0.86,-7.72,-1.24,7.86
30.199463844299316,-1.36,-8.38,-0.8,8.52
30.20190978050232,-2.1,-8.45,-1.32,8.8
30.286144733428955,-2.66,-9.1,-1.54,9.6
30.28829574584961,-3.24,-8.94,-0.71,9.53
30.289862871170044,-3.73,-6.81,0.25,7.76
30.292609691619873,-3.49,-3.81,0.97,5.25
30.295135974884033,-2.94,-2.28,1.06,3.86
30.29755187034607,-2.28,-1.04,0.91,2.66
30.29994297027588,-1.25,0.64,1.61,2.13
30.30227565765381,-0.73,2.73,3.08,4.17
30.304792881011963,-1.47,4.99,3.6,6.32
30.307310819625854,-3.06,7.33,2.68,8.38
30.39229393005371,-4.35,9.79,3.58,11.29
30.39429783821106,-4.22,11.36,2.96,12.47
30.395809650421143,-5.28,10.83,2.22,12.25
30.39867877960205,-7.18,7.45,3.26,10.84
30.40110683441162,-7.32,4.25,3.5,9.15
30.403888702392578,-6.27,2.58,3.71,7.72
30.405516862869263,-4.42,1.85,2.89,5.59
30.42367172241211,-2.51,1.59,2.19,3.69
30.42540979385376,-0.97,1.68,2.16,2.9
30.4285249710083,-0.06,2.0,1.51,2.5
30.52236580848694,0.45,2.35,0.75,2.5
30.524192810058594,0.97,2.47,0.42,2.68
30.52576184272766,1.52,2.27,0.25,2.74
30.52826499938965,1.92,1.93,-0.03,2.72
30.530829906463623,2.0,1.76,-0.56,2.72
30.53313398361206,1.92,1.55,-0.83,2.6
30.535563945770264,1.71,1.31,-0.83,2.3
30.53689980506897,1.51,0.99,-1.08,2.1
30.539878845214844,1.61,0.65,-1.75,2.46
30.542253971099854,2.0,0.36,-2.33,3.09
30.626827716827393,2.48,0.26,-2.56,3.57
30.628782749176025,2.86,0.33,-2.66,3.91
30.630265712738037,3.07,0.51,-2.56,4.02
30.632977962493896,3.08,0.85,-2.63,4.13
30.63543176651001,3.23,0.97,-3.19,4.64
30.636902809143066,3.36,0.89,-3.23,4.74
30.640225887298584,3.68,0.52,-3.27,4.95
30.6427059173584,4.09,-0.23,-3.4,5.32
30.64523482322693,4.3,-0.84,-3.12,5.37
30.647734880447388,4.1,-0.94,-2.76,5.03
30.731311798095703,3.74,-0.7,-2.95,4.81
30.73327088356018,3.37,-0.36,-2.72,4.34
30.734776973724365,3.06,-0.08,-2.16,3.74
30.73763084411621,2.93,0.21,-2.26,3.7
30.739248752593994,3.04,0.36,-2.47,3.93
30.75678777694702,3.15,0.27,-2.61,4.09
30.758412837982178,2.95,0.06,-2.96,4.17
30.761334896087646,2.5,-0.01,-2.56,3.57
30.763877868652344,2.12,-0.09,-2.24,3.08
30.76660394668579,2.05,-0.4,-2.21,3.04
30.769088745117188,1.94,-0.62,-1.74,2.67
30.85280680656433,1.61,-0.64,-1.12,2.06
30.85483479499817,1.08,-0.67,-0.97,1.59
30.85676884651184,0.57,-0.95,-0.84,1.39
30.85934591293335,0.08,-1.25,-0.63,1.4
30.861910820007324,-0.34,-1.38,-0.23,1.43
30.864434719085693,-0.35,-1.49,0.23,1.54
30.866917848587036,0.16,-1.72,0.39,1.77
30.870333671569824,0.6,-1.76,0.47,1.91
30.871851921081543,0.85,-1.61,0.62,1.92
30.874613761901855,1.06,-1.58,0.64,2.0
30.958298683166504,1.25,-1.69,0.52,2.16
30.96024799346924,1.59,-1.85,0.36,2.46
30.961726665496826,2.16,-1.79,-2.0,3.44
30.964568853378296,0.33,-1.29,-4.86,5.03
30.967153787612915,-1.7,-1.21,-1.83,2.77
30.97035264968872,-0.74,-2.53,2.87,3.89
30.971913814544678,2.16,-4.13,1.9,5.03
30.990933895111084,3.16,-3.95,0.61,5.09
30.99259877204895,1.73,-2.72,2.81,4.27
30.995863914489746,-0.53,-1.98,4.46,4.9
31.081166744232178,-2.68,-1.84,5.99,6.81
31.083181858062744,-3.56,-2.08,4.48,6.08
31.0846688747406,-4.45,-1.87,2.12,5.27
31.087459802627563,-6.29,-1.4,0.12,6.44
31.090702772140503,-8.42,-1.97,1.03,8.7
