time,ax,ay,az,atotal
0.07215380668640137,0.04,0.09,0.23,0.25
0.07470107078552246,-0.02,0.07,0.28,0.28
0.07645010948181152,-0.06,0.08,0.28,0.29
0.07892203330993652,-0.15,0.12,0.23,0.29
0.08140206336975098,-0.14,0.13,0.2,0.27
0.08380699157714844,-0.04,0.08,0.21,0.22
0.09936881065368652,0.12,0.08,0.12,0.18
0.10127711296081543,0.28,0.15,0.02,0.31
0.10478591918945312,0.24,0.23,0.05,0.33
0.10761189460754395,0.11,0.22,0.12,0.27
0.18272709846496582,0.03,0.1,0.07,0.12
0.18531203269958496,0.05,0.01,0.05,0.07
0.18706107139587402,0.06,0.01,0.02,0.06
0.18957114219665527,0.0,0.08,0.01,0.08
0.19229388236999512,0.01,0.1,0.07,0.12
0.1950228214263916,0.05,0.09,0.07,0.12
0.1974639892578125,0.06,0.07,-0.01,0.09
0.19975996017456055,0.06,0.1,-0.11,0.16
0.2161848545074463,0.11,0.1,-0.07,0.16
0.21795296669006348,0.14,0.06,0.01,0.15
0.2934257984161377,0.05,0.01,0.11,0.12
0.2960398197174072,-0.06,0.0,0.14,0.15
0.2978780269622803,-0.1,0.04,0.1,0.14
0.30116891860961914,-0.06,0.12,0.06,0.14
0.3036379814147949,-0.04,0.12,0.04,0.13
0.3062479496002197,-0.06,0.06,0.02,0.08
0.3088691234588623,-0.06,0.02,0.0,0.06
0.3115060329437256,-0.01,0.06,-0.05,0.07
0.3143589496612549,0.03,0.08,-0.04,0.09
0.3163020610809326,0.04,0.09,0.01,0.09
0.40322399139404297,0.05,0.09,0.01,0.1
0.40494298934936523,0.01,0.05,0.01,0.05
0.4067118167877197,-0.05,0.03,-0.02,0.06
0.4095649719238281,-0.02,0.04,-0.03,0.05
0.4120829105377197,0.05,0.03,-0.01,0.05
0.4144937992095947,0.08,0.01,0.01,0.08
0.41707682609558105,0.06,0.02,0.04,0.07
0.4334709644317627,0.05,0.07,0.08,0.11
0.4354879856109619,0.07,0.12,0.09,0.16
0.43914198875427246,0.09,0.13,0.06,0.16
0.5130560398101807,0.08,0.12,0.05,0.15
0.5154290199279785,0.12,0.12,0.05,0.17
0.5169670581817627,0.19,0.12,-0.05,0.23
0.5195939540863037,0.19,0.07,-0.1,0.22
0.5220580101013184,0.13,0.08,-0.06,0.16
0.524864912033081,0.03,0.1,-0.01,0.1
0.5276529788970947,-0.05,0.06,0.11,0.13
0.5311470031738281,-0.08,0.04,0.21,0.22
0.5330519676208496,-0.11,0.03,0.14,0.18
0.5358450412750244,-0.08,0.04,0.13,0.15
0.6104469299316406,0.03,0.01,0.08,0.08
0.6130859851837158,0.07,-0.02,-0.06,0.09
0.6149039268493652,0.02,0.01,-0.09,0.09
0.6176908016204834,-0.03,0.05,-0.09,0.1
0.6203279495239258,-0.1,0.08,-0.15,0.19
0.6231420040130615,-0.15,0.05,-0.1,0.18
0.6260521411895752,-0.2,0.04,0.05,0.21
0.6288719177246094,-0.19,0.05,0.04,0.2
0.6315348148345947,-0.1,0.08,-0.02,0.12
0.6333930492401123,0.05,0.06,0.01,0.07
0.7205679416656494,0.11,0.07,-0.01,0.13
0.7226159572601318,0.13,0.13,-0.01,0.18
0.7243809700012207,0.24,0.2,0.03,0.31
0.7271969318389893,0.31,0.22,0.06,0.38
0.7300319671630859,0.27,0.16,0.11,0.33
0.7318689823150635,0.23,0.1,0.15,0.29
0.7346718311309814,0.26,0.08,0.2,0.33
0.7374517917633057,0.25,0.09,0.24,0.35
0.7401931285858154,0.18,0.1,0.18,0.27
0.7429068088531494,0.14,0.12,0.15,0.23
0.745682954788208,0.11,0.15,0.06,0.19
0.8195359706878662,0.13,0.16,0.01,0.2
0.8215689659118652,0.13,0.14,0.07,0.2
0.8237960338592529,0.06,0.1,0.13,0.17
0.8261768817901611,-0.02,0.07,0.08,0.1
0.8289821147918701,-0.01,0.04,0.19,0.19
0.8315598964691162,-0.04,0.04,0.25,0.25
0.8337390422821045,-0.11,0.01,0.21,0.23
0.8503329753875732,-0.15,0.0,0.16,0.21
0.8523569107055664,-0.17,0.03,0.09,0.19
0.8560209274291992,-0.2,0.07,-0.05,0.21
0.9299590587615967,-0.18,0.1,-0.05,0.21
0.9323351383209229,-0.1,0.09,-0.05,0.14
0.9341118335723877,-0.01,0.04,-0.06,0.07
0.9364640712738037,-0.08,0.01,-0.05,0.09
0.9389698505401611,-0.15,0.01,-0.01,0.15
0.9416170120239258,-0.1,0.04,0.03,0.11
0.9442617893218994,-0.04,0.01,0.1,0.1
0.9468410015106201,0.01,0.01,0.15,0.15
0.9485208988189697,0.07,0.1,0.1,0.15
0.9511299133300781,0.14,0.18,0.04,0.23
1.0253379344940186,0.15,0.19,-0.02,0.24
1.0278749465942383,0.13,0.12,-0.02,0.17
1.0298619270324707,0.11,0.07,0.0,0.13
1.0317959785461426,0.12,0.04,0.09,0.15
1.0342438220977783,0.12,0.06,0.13,0.18
1.0368409156799316,0.07,0.12,0.15,0.2
1.0395889282226562,0.04,0.16,0.19,0.25
1.0423648357391357,0.1,0.14,0.21,0.27
1.0451059341430664,0.11,0.06,0.15,0.19
1.0480930805206299,0.05,0.02,0.03,0.06
1.1206989288330078,0.06,0.09,-0.03,0.11
1.1232030391693115,0.08,0.12,-0.06,0.15
1.125011920928955,0.11,0.08,-0.06,0.14
1.1274831295013428,0.1,0.05,0.0,0.11
1.1301147937774658,-0.01,0.05,0.08,0.09
1.131894826889038,-0.12,0.09,0.07,0.16
1.1346900463104248,-0.13,0.1,0.01,0.16
1.1371638774871826,-0.05,0.08,-0.05,0.1
1.139953851699829,0.05,0.22,-0.39,0.45
1.142711877822876,0.37,0.17,-0.48,0.62
1.2167880535125732,0.36,0.24,0.45,0.62
1.2193191051483154,0.14,-0.25,0.22,0.36
1.221203088760376,-0.28,-0.4,0.5,0.69
1.2340059280395508,-0.61,-0.13,0.92,1.11
1.2360539436340332,-0.74,0.44,0.31,0.91
1.2397358417510986,-0.22,0.37,-0.04,0.43
1.242440938949585,0.46,0.04,-0.08,0.46
1.24527907371521,0.64,0.01,-0.26,0.69
1.2481529712677002,0.69,0.01,-0.51,0.85
1.2502238750457764,0.69,0.05,-0.3,0.75
1.337829828262329,0.47,0.12,-0.13,0.5
1.3399269580841064,0.26,0.21,-0.04,0.33
1.3418350219726562,0.21,0.3,0.34,0.49
1.3445279598236084,0.23,0.31,0.55,0.67
1.3480420112609863,0.28,0.34,0.62,0.76
1.349919080734253,0.38,0.42,0.78,0.96
1.352626085281372,0.42,0.46,0.9,1.09
1.3553550243377686,0.32,0.35,0.95,1.06
1.358016014099121,0.19,0.12,0.98,1.0
1.360849142074585,0.01,-0.04,1.1,1.1
1.4353320598602295,-0.13,0.01,1.1,1.1
1.4372339248657227,-0.26,0.26,0.97,1.03
1.4396250247955322,-0.34,0.49,0.77,0.97
1.4420058727264404,-0.29,0.56,0.63,0.89
1.4448459148406982,-0.16,0.48,0.56,0.75
1.448335886001587,0.0,0.35,0.64,0.72
1.4502718448638916,0.03,0.27,0.7,0.75
1.4540159702301025,-0.12,0.26,0.73,0.78
1.4566748142242432,-0.39,0.26,0.92,1.03
1.4591748714447021,-0.69,0.24,1.27,1.46
1.5338218212127686,-0.73,0.2,1.35,1.54
1.536355972290039,-0.51,0.19,1.0,1.13
1.538240909576416,-0.16,0.23,0.74,0.79
1.5510709285736084,0.15,0.5,0.8,0.95
1.5530569553375244,0.36,0.89,0.82,1.26
1.5557568073272705,0.55,1.15,0.81,1.51
1.5585238933563232,0.65,1.13,0.72,1.48
1.5613129138946533,0.49,0.71,0.53,1.01
1.5640180110931396,0.1,0.05,1.11,1.11
1.5658769607543945,-0.48,-0.19,1.67,1.74
1.5685570240020752,-1.01,-0.2,0.45,1.12
1.6425888538360596,-1.34,-0.23,-0.21,1.37
1.6451079845428467,-1.47,-0.28,0.56,1.59
1.647014856338501,-1.59,-0.25,0.45,1.67
1.649075984954834,-1.61,-0.21,-0.22,1.63
1.6674110889434814,-1.12,-0.23,-0.56,1.27
1.6694200038909912,-0.5,-0.31,-1.02,1.17
1.6722137928009033,-0.05,-0.4,-1.24,1.3
1.6750059127807617,0.29,-0.39,-1.29,1.37
1.6778359413146973,0.4,-0.21,-1.34,1.41
1.6805169582366943,0.3,0.04,-1.24,1.27
1.7564008235931396,0.13,0.29,-0.84,0.89
1.7589600086212158,0.19,0.39,-0.48,0.64
1.7608988285064697,0.37,0.32,-0.57,0.75
1.7635490894317627,0.8,0.08,-0.48,0.93
1.765406847000122,1.18,-0.19,-0.42,1.26
1.768906831741333,0.92,-0.27,-0.25,0.99
1.771507978439331,0.26,-0.3,0.06,0.4
1.774294137954712,-0.05,-0.46,0.02,0.46
1.7770941257476807,0.16,-0.56,-0.15,0.6
1.7798430919647217,0.45,-0.5,-0.37,0.76
1.8537538051605225,0.48,-0.2,-0.41,0.66
1.8557989597320557,0.43,0.1,-0.19,0.48
1.8581478595733643,0.23,0.23,-0.28,0.42
1.8610150814056396,-0.1,0.14,-0.6,0.62
1.8636939525604248,-0.05,-0.06,-1.09,1.09
1.8655729293823242,0.3,-0.09,-1.28,1.31
1.8686048984527588,0.42,0.08,-1.19,1.26
1.871433973312378,0.33,0.33,-1.2,1.28
1.8742289543151855,0.13,0.51,-0.94,1.07
1.8769128322601318,-0.12,0.49,-0.56,0.75
1.9516239166259766,-0.06,0.45,-0.26,0.52
1.9542100429534912,-0.19,0.35,0.16,0.42
1.9560749530792236,-0.81,0.01,0.23,0.84
1.9674150943756104,-1.51,-0.35,0.15,1.55
1.969538927078247,-1.58,-0.54,0.29,1.69
1.9732511043548584,-1.14,-0.52,0.44,1.32
1.9761970043182373,-1.0,-0.28,0.49,1.14
1.9790050983428955,-1.31,-0.16,0.13,1.32
1.9818718433380127,-1.43,-0.38,0.1,1.48
1.9839909076690674,-1.45,-0.78,0.05,1.64
2.071000814437866,-1.1,-0.88,0.37,1.45
2.0730178356170654,-0.76,-0.57,0.51,1.07
2.074985980987549,-0.71,-0.17,0.55,0.91
2.077646017074585,-0.56,-0.11,0.22,0.61
2.080303907394409,0.03,-0.5,-0.28,0.57
2.082150936126709,0.92,-0.91,0.13,1.3
2.0851290225982666,0.85,-1.07,0.34,1.4
2.0877249240875244,-0.51,-0.9,0.11,1.04
2.090480089187622,-2.09,-0.91,0.37,2.3
2.093256950378418,-3.5,-1.28,0.58,3.77
2.1688590049743652,-4.47,-1.59,0.66,4.79
2.1714229583740234,-4.51,-1.76,0.54,4.87
2.173279047012329,-3.61,-1.85,0.57,4.09
2.184783935546875,-2.61,-1.89,0.51,3.26
2.186757802963257,-1.88,-1.82,0.08,2.61
2.19042706489563,-1.35,-1.78,0.2,2.24
2.193202018737793,-1.59,-2.24,0.32,2.76
2.195990800857544,-3.38,-3.63,-0.27,4.96
2.198765993118286,-6.0,-6.08,-0.21,8.54
2.2007148265838623,-8.41,-9.03,1.69,12.45
2.2839839458465576,-10.27,-10.94,3.48,15.4
2.2860469818115234,-11.89,-10.84,2.86,16.34
2.2880029678344727,-11.63,-10.77,3.64,16.26
2.2917730808258057,-10.43,-11.54,4.34,16.14
2.2946298122406006,-9.15,-12.3,4.5,15.97
2.297361135482788,-8.9,-12.53,4.38,15.98
2.299221992492676,-8.67,-12.12,3.47,15.3
2.3019869327545166,-6.93,-10.33,1.72,12.55
2.3048009872436523,-5.12,-7.96,0.9,9.5
2.3075578212738037,-3.28,-6.11,-0.07,6.93
2.3771560192108154,-2.32,-4.54,-1.93,5.45
2.3797409534454346,-1.99,-2.85,-2.55,4.31
2.3816299438476562,-0.91,-1.18,-1.59,2.17
2.383661985397339,0.8,0.62,-1.7,1.97
2.401374101638794,2.89,2.42,-3.86,5.39
2.403391122817993,3.14,4.0,-5.42,7.43
2.406207799911499,0.48,5.35,-3.89,6.63
2.4090077877044678,-1.69,6.11,-2.01,6.65
2.411796808242798,-1.87,6.74,-0.36,7.0
2.4150960445404053,-1.12,7.17,0.81,7.3
2.416875123977661,-0.63,7.43,0.97,7.51
2.485934019088745,-0.79,7.33,-0.06,7.37
2.488459825515747,-1.31,7.28,-1.5,7.54
2.4902830123901367,-1.72,7.0,-2.86,7.75
2.4930059909820557,-0.8,6.78,-3.15,7.51
2.495845079421997,0.53,7.11,-2.52,7.56
2.4988319873809814,1.33,7.53,-1.73,7.83
2.5007550716400146,1.56,8.02,-1.04,8.23
2.5178799629211426,1.47,8.46,-0.16,8.58
2.519913911819458,1.42,8.47,0.61,8.6
2.5227339267730713,1.5,8.03,0.76,8.2
2.5907649993896484,1.85,7.15,0.34,7.39
2.5933210849761963,2.37,6.02,0.18,6.47
2.5951640605926514,3.02,4.91,0.59,5.79
2.5978379249572754,3.7,3.9,0.73,5.42
2.5997278690338135,4.15,3.07,-0.08,5.16
2.6023499965667725,4.52,2.46,-1.38,5.32
2.6050918102264404,4.98,2.22,-2.36,5.94
2.6078507900238037,5.51,2.41,-2.96,6.7
2.610649824142456,6.12,3.07,-3.33,7.61
2.6134121417999268,6.73,3.88,-3.4,8.47
2.6816799640655518,6.9,4.47,-3.0,8.75
2.6839029788970947,6.57,5.01,-2.54,8.64
2.6861939430236816,6.17,4.76,-2.32,8.13
2.6889588832855225,5.42,3.92,-2.1,7.01
2.691746950149536,4.43,3.14,-2.17,5.84
2.694506883621216,3.84,2.81,-1.83,5.09
2.6972639560699463,3.49,2.91,-0.9,4.63
2.6989548206329346,3.35,3.1,-0.9,4.65
2.7020490169525146,3.15,2.94,-1.25,4.48
2.7047231197357178,3.64,2.15,-1.33,4.43
2.7731409072875977,3.3,1.69,-1.41,3.96
2.7758309841156006,2.37,1.22,-1.4,3.01
2.7776780128479004,1.56,0.53,-1.28,2.08
2.7803361415863037,1.62,-0.75,-0.83,1.96
2.7821710109710693,1.52,-2.08,0.31,2.59
2.7856600284576416,0.93,-2.81,1.37,3.26
2.7881879806518555,-0.07,-2.99,2.08,3.64
2.790969133377075,-1.4,-2.87,2.27,3.91
2.7937328815460205,-2.21,-2.7,2.43,4.25
2.7965569496154785,-2.51,-1.98,2.51,4.06
2.8647348880767822,-1.89,-1.19,2.29,3.19
2.8669209480285645,0.87,-1.55,0.26,1.79
2.8692710399627686,5.68,-2.71,-4.73,7.87
2.8721201419830322,7.05,-2.76,-5.79,9.53
2.874737024307251,-0.8,-5.78,-10.79,12.26
2.877509832382202,-12.06,-12.34,-3.74,17.65
2.8802578449249268,-17.52,-14.99,4.6,23.51
2.8829691410064697,-11.26,-10.79,1.83,15.7
2.884981870651245,-6.55,-10.75,4.61,13.4
2.9016799926757812,-3.44,-15.46,15.65,22.26
2.958163022994995,-0.41,-10.63,22.1,24.52
2.9606258869171143,-0.25,0.38,11.87,11.87
2.962549924850464,0.08,4.44,-6.0,7.46
2.9659409523010254,4.68,4.03,-15.5,16.68
2.967971086502075,11.75,4.58,-14.26,19.03
2.98376202583313,16.55,5.83,-11.02,20.72
2.9857699871063232,14.78,5.84,-8.43,17.98
2.9884300231933594,10.21,4.33,-6.09,12.65
2.991105794906616,6.48,1.81,-1.48,6.88
2.9938948154449463,1.48,-0.62,1.56,2.23
3.0520880222320557,-4.21,-2.93,3.07,5.97
3.054682970046997,-8.59,-4.56,3.73,10.41
3.0565199851989746,-11.03,-4.34,3.59,12.38
3.0693538188934326,-11.14,-2.88,3.57,12.04
3.071359872817993,-9.29,-0.57,3.02,9.78
3.074230909347534,-6.44,1.54,1.2,6.72
3.0770070552825928,-3.22,2.35,-0.33,3.99
3.079836130142212,-0.26,1.67,-0.74,1.84
3.082637071609497,1.47,0.84,-0.68,1.82
3.0846059322357178,1.71,0.07,-0.07,1.71
3.1553289890289307,-0.25,-0.28,1.76,1.79
3.157642126083374,-3.18,-0.47,3.92,5.06
3.1596438884735107,-4.47,-0.3,4.16,6.11
3.1626739501953125,-3.22,0.65,1.03,3.44
3.1660969257354736,-1.08,1.27,-0.97,1.92
3.168087959289551,-0.55,0.78,1.7,1.94
3.185482978820801,-2.66,0.15,3.09,4.07
3.1875569820404053,-3.85,0.76,-0.02,3.92
3.190500020980835,-2.73,1.16,-1.14,3.17
3.19327712059021,-1.96,0.48,1.74,2.66
3.196124792098999,-0.59,0.71,-0.44,1.02
3.2538158893585205,1.31,2.02,-2.03,3.14
3.2558658123016357,2.67,2.02,0.6,3.4
3.2582249641418457,1.9,-0.05,0.57,1.98
3.260826826095581,-0.71,-1.76,-0.24,1.91
3.263582944869995,-2.3,-2.07,-0.11,3.09
3.266317129135132,-2.89,-1.51,0.72,3.33
3.2683990001678467,-0.66,1.0,0.28,1.23
3.285242795944214,2.58,4.08,-1.1,4.95
3.287230968475342,3.18,5.57,-0.83,6.46
3.289944887161255,0.4,3.11,-1.96,3.69
3.3492980003356934,-4.14,-3.71,-3.28,6.45
3.3518130779266357,-5.24,-13.33,-1.44,14.39
3.3537089824676514,-2.95,-22.78,-1.35,23.0
3.356306791305542,0.41,-28.47,-3.03,28.63
3.3587639331817627,2.32,-28.66,-1.21,28.77
3.361521005630493,0.09,-23.32,1.19,23.35
3.3642239570617676,-1.22,-14.41,1.22,14.51
3.3661000728607178,0.03,-8.3,1.73,8.47
3.3689939975738525,-0.32,-4.62,2.52,5.27
3.371809959411621,-2.15,-0.94,0.53,2.4
3.4303009510040283,-5.59,2.75,0.35,6.23
3.4332048892974854,-9.78,6.55,3.62,12.31
3.4351229667663574,-13.23,10.26,5.12,17.5
3.4377689361572266,-15.58,14.53,3.37,21.56
3.440561056137085,-16.09,19.1,1.39,25.01
3.4433248043060303,-13.73,19.49,0.39,23.84
3.4458839893341064,-9.94,14.72,-0.6,17.77
3.4492781162261963,-6.37,9.35,-0.12,11.31
3.451385974884033,-2.62,5.19,1.45,5.99
3.4688618183135986,0.45,2.39,0.78,2.55
3.5266969203948975,2.64,0.39,-0.85,2.8
3.5289359092712402,5.23,-0.96,-1.48,5.51
3.5308730602264404,8.25,-0.51,-0.85,8.3
3.5327439308166504,9.5,2.62,-0.7,9.87
3.5357539653778076,9.25,6.24,-1.54,11.26
3.5383150577545166,8.51,8.56,-2.98,12.43
3.541053056716919,7.34,8.92,-3.77,12.15
3.54382586479187,5.78,7.04,-2.72,9.5
3.5465009212493896,4.58,4.02,-1.11,6.19
3.549186944961548,3.93,0.76,0.02,4.0
3.6063599586486816,3.83,-1.75,0.73,4.27
3.6089160442352295,4.24,-2.66,1.02,5.1
3.610806941986084,4.9,-1.79,0.47,5.23
3.613308906555176,5.18,0.02,-1.0,5.27
3.6160428524017334,5.08,1.32,-2.06,5.63
3.618088960647583,5.41,1.46,-1.99,5.94
3.6348631381988525,5.86,0.83,-1.5,6.1
3.636887788772583,5.95,-0.28,-0.69,5.99
3.6395769119262695,5.24,-1.04,-0.86,5.41
3.642298936843872,3.85,-0.96,-1.14,4.12
3.7001969814300537,1.73,0.08,-1.16,2.08
3.7026560306549072,-0.44,-0.64,-1.03,1.29
3.70451283454895,-0.65,-2.1,0.67,2.29
3.7071778774261475,-1.04,-2.15,1.69,2.92
3.709925889968872,-0.6,-3.08,0.73,3.22
3.7127199172973633,-0.43,-2.9,0.23,2.94
3.7160608768463135,1.16,-2.85,-0.25,3.08
3.717900037765503,1.09,-1.34,-0.36,1.76
3.7350428104400635,1.99,-0.91,-0.46,2.23
3.7371389865875244,4.81,-1.18,-2.09,5.37
3.795069932937622,5.39,-0.69,-6.46,8.44
3.797683000564575,2.76,-3.85,-14.56,15.31
3.79960298538208,-4.73,-10.56,-6.76,13.4
3.802954912185669,-13.08,-14.83,12.55,23.42
3.8054568767547607,-13.8,-12.95,14.73,23.98
3.807953119277954,-20.02,-10.17,3.97,22.8
3.8107149600982666,-22.14,-12.46,0.16,25.4
3.8135290145874023,-7.03,-11.42,8.89,16.08
3.8162028789520264,10.14,-4.13,13.95,17.73
3.8181140422821045,14.56,2.53,1.16,14.82
3.8893721103668213,13.4,7.12,-11.66,19.13
3.89159893989563,13.07,9.87,-14.97,22.18
3.8935558795928955,12.43,11.08,-13.5,21.43
3.896251916885376,9.76,8.75,-12.53,18.13
3.8994901180267334,7.81,3.41,-8.52,12.05
3.9014389514923096,6.41,-2.39,-1.74,7.05
3.9188010692596436,3.05,-7.01,2.31,7.98
3.92089581489563,-1.84,-9.26,3.12,9.94
3.923680067062378,-5.93,-7.56,3.86,10.35
3.9263389110565186,-7.68,-4.19,5.15,10.15
3.929119825363159,-7.81,-1.02,4.74,9.19
3.9872710704803467,-6.22,0.73,3.44,7.14
3.989320993423462,-3.37,1.55,1.22,3.9
3.9915621280670166,-1.21,2.06,-0.4,2.42
3.994239091873169,0.1,1.84,-0.95,2.07
3.997044801712036,0.43,1.2,-0.84,1.52
3.999829053878784,0.17,0.96,-0.48,1.08
4.00196385383606,-0.65,0.77,-0.56,1.15
4.017506837844849,-1.89,0.59,-0.15,1.98
4.019475936889648,-3.42,0.12,2.21,4.07
4.023199796676636,-5.15,-0.5,4.04,6.56
4.080660104751587,-6.18,-1.01,3.25,7.05
4.0832860469818115,-5.29,-0.76,2.0,5.7
4.0854339599609375,-3.19,0.12,2.16,3.85
4.088099956512451,-1.1,1.19,1.64,2.3
4.090886831283569,0.24,2.02,0.47,2.08
4.093641996383667,0.75,2.45,-0.42,2.59
4.096369981765747,0.28,1.99,0.0,2.0
4.099631071090698,-0.89,0.8,0.26,1.22
4.1018078327178955,-1.32,-0.12,-1.2,1.78
4.117716073989868,-0.74,-0.46,-0.72,1.13
4.174582004547119,-0.25,-0.29,0.96,1.03
4.1771228313446045,0.37,0.51,0.14,0.64
4.179058790206909,0.15,1.19,-0.73,1.4
4.181657075881958,-2.2,0.7,1.83,2.94
4.183534860610962,-3.55,0.14,1.21,3.75
4.186300992965698,-1.66,0.4,-1.95,2.59
4.1890928745269775,-0.22,-0.05,-0.6,0.64
4.191792011260986,-1.04,-2.09,0.19,2.34
4.194555997848511,-2.81,-3.83,-0.93,4.84
4.1973230838775635,-2.55,-3.37,-0.49,4.25
4.255127906799316,-0.07,-1.64,-0.56,1.73
4.257339954376221,1.47,-0.56,-0.84,1.78
4.25969386100769,2.03,-0.63,-1.29,2.48
4.262537002563477,1.03,-2.55,-1.7,3.23
4.265275955200195,-1.58,-7.84,-0.92,8.05
4.267163038253784,-3.84,-14.11,-0.19,14.62
4.269838094711304,-1.86,-15.89,0.44,16.0
4.272593975067139,1.95,-14.91,-1.14,15.08
4.27535080909729,2.5,-16.07,-0.59,16.27
4.278144121170044,-0.15,-17.29,1.67,17.37
4.336188077926636,-1.71,-13.0,3.69,13.62
4.3387839794158936,-1.78,-7.56,2.95,8.3
4.3406288623809814,-2.41,-3.82,1.44,4.74
4.352108955383301,-2.67,-0.99,-0.24,2.85
4.3540849685668945,-3.56,1.47,-2.0,4.33
4.356689929962158,-7.26,3.8,0.45,8.2
4.359482049942017,-10.95,6.06,3.92,13.11
4.3622589111328125,-12.72,9.3,5.3,16.62
4.364957094192505,-11.91,14.19,4.58,19.08
4.3668200969696045,-9.37,18.31,2.74,20.74
4.42377495765686,-6.31,17.31,-0.26,18.42
4.426329851150513,-3.45,13.16,-2.6,13.85
4.428159952163696,-1.8,9.15,-2.13,9.56
4.430779933929443,-0.54,6.09,0.1,6.11
4.433449029922485,0.45,3.48,1.04,3.65
4.435451984405518,1.76,1.28,0.06,2.17
4.4514501094818115,2.91,-0.07,-1.15,3.12
4.45349907875061,4.12,0.46,-1.46,4.39
4.457202911376953,4.85,2.4,-1.15,5.53
4.46000599861145,4.83,4.64,-0.84,6.75
4.517151117324829,4.68,6.04,-0.39,7.65
4.519747972488403,4.53,6.43,-0.24,7.86
4.5215959548950195,4.56,5.2,-0.44,6.93
4.53675103187561,4.72,2.35,-0.85,5.34
4.538741827011108,4.99,-1.35,-0.92,5.25
4.5415990352630615,5.39,-4.33,-0.28,6.91
4.544364929199219,5.29,-3.88,0.62,6.58
4.547076940536499,5.0,-0.78,0.62,5.09
4.549865961074829,4.72,1.72,-0.03,5.02
4.551978826522827,4.79,2.33,-0.67,5.36
4.622509002685547,5.25,1.85,-1.07,5.66
4.624645948410034,5.5,0.63,-1.46,5.72
4.626623868942261,5.26,-0.03,-1.26,5.4
4.629323959350586,4.19,0.51,-0.48,4.24
4.6320741176605225,3.14,0.87,0.31,3.27
4.633991003036499,2.32,0.32,0.68,2.43
4.637727975845337,1.03,0.05,1.02,1.45
4.640539884567261,0.18,-0.52,1.49,1.58
4.643295049667358,-0.08,-0.92,1.38,1.66
4.64606499671936,-0.37,-1.57,1.21,2.01
4.648741006851196,-0.62,-1.83,0.7,2.05
4.705544948577881,-0.1,-1.71,0.25,1.73
4.708091974258423,0.89,-1.44,0.57,1.78
4.709997892379761,4.29,-1.98,1.04,4.83
4.712716817855835,6.47,-2.27,-1.55,7.02
4.715347051620483,2.65,-3.59,-15.27,15.9
4.717243909835815,-4.56,-9.67,-18.23,21.13
4.719954013824463,-15.42,-13.97,8.42,22.44
4.722521066665649,-15.94,-9.75,12.53,22.49
4.725332975387573,-12.25,-2.37,-6.49,14.06
4.728125810623169,-15.46,-5.42,-9.57,18.97
4.785977125167847,-8.93,-18.02,8.29,21.75
4.788800001144409,7.61,-16.94,20.37,27.56
4.790668964385986,11.22,-4.68,7.81,14.44
4.802954912185669,7.55,2.92,-4.29,9.16
4.805073976516724,8.95,4.69,-5.82,11.66
4.807754993438721,13.56,4.15,-6.77,15.71
4.810532808303833,14.14,3.37,-8.2,16.68
4.8133440017700195,10.99,3.13,-7.9,13.89
4.816679000854492,7.81,2.22,-5.89,10.03
4.818828821182251,4.22,0.46,-2.89,5.13
4.889506101608276,0.28,-1.28,-0.65,1.46
4.891714811325073,-3.77,-2.19,1.8,4.71
4.8936240673065186,-6.27,-2.14,3.62,7.54
4.896336793899536,-7.32,-1.27,4.17,8.51
4.89972996711731,-8.38,-0.36,4.49,9.51
4.901557922363281,-8.57,0.38,3.44,9.24
4.904301881790161,-7.03,0.81,1.02,7.14
4.907036066055298,-3.76,0.7,0.09,3.82
4.909757852554321,-0.58,-0.09,0.44,0.73
4.9124109745025635,0.6,-0.27,0.44,0.79
4.96984601020813,0.13,0.13,0.27,0.32
4.972319841384888,-1.71,0.48,0.71,1.91
4.97425389289856,-3.3,0.89,1.7,3.81
4.97692084312439,-4.19,1.62,1.99,4.91
4.979697942733765,-4.17,2.32,1.37,4.96
4.983155965805054,-3.67,2.62,0.81,4.58
4.98519492149353,-3.91,2.19,2.0,4.9
4.98816704750061,-4.99,0.89,3.46,6.13
4.9909398555755615,-4.9,-0.55,2.2,5.39
4.993708848953247,-2.87,-1.54,-0.47,3.29
5.0519959926605225,-0.22,-1.55,-0.83,1.77
5.0546019077301025,1.37,-0.74,0.37,1.6
5.0564539432525635,1.67,0.91,0.0,1.9
5.069634914398193,2.23,2.77,-1.08,3.71
5.071645021438599,2.44,3.4,-0.05,4.18
5.074441909790039,1.32,2.46,0.19,2.79
5.077227830886841,-0.53,1.21,-0.19,1.33
5.080026865005493,-1.25,0.3,-0.42,1.35
5.083430051803589,-0.6,0.05,-0.3,0.67
5.085838079452515,0.41,0.22,-0.46,0.65
5.158057928085327,0.11,-0.24,-1.2,1.22
5.160250902175903,-1.68,-2.67,-1.19,3.37
5.1621668338775635,-3.39,-6.32,-0.98,7.23
5.164997816085815,-2.02,-8.37,-0.9,8.65
5.166831016540527,0.98,-9.07,-1.39,9.22
5.170301914215088,1.77,-12.19,-1.58,12.41
5.173052072525024,-0.32,-20.47,-0.49,20.47
5.17568302154541,-2.59,-28.82,0.35,28.93
5.178194999694824,-1.61,-28.68,-0.16,28.72
5.18109393119812,-1.49,-24.62,1.19,24.69
5.235834836959839,-3.29,-17.95,2.31,18.39
5.238065004348755,-3.21,-8.96,1.1,9.58
5.240378141403198,-1.94,-3.45,-1.24,4.14
5.243258953094482,-1.71,-0.42,-1.31,2.19
5.246017932891846,-4.16,3.03,-3.33,6.12
5.248667001724243,-8.83,6.02,-2.69,11.02
5.250535011291504,-12.42,9.18,-0.56,15.45
5.2535529136657715,-13.86,12.55,-0.2,18.69
5.2562689781188965,-11.77,15.87,0.36,19.76
5.259044885635376,-7.63,16.16,1.42,17.92
5.314435005187988,-4.39,13.22,1.5,14.01
5.317540884017944,-3.32,10.23,0.47,10.76
5.319612979888916,-3.16,9.03,-0.07,9.56
5.322474956512451,-2.95,9.07,-0.32,9.54
5.325093984603882,-2.94,9.58,-0.55,10.03
5.32780909538269,-2.81,10.35,-1.0,10.77
5.33063006401062,-1.92,10.43,-1.16,10.66
5.333359956741333,-1.06,9.62,-0.33,9.68
5.335381984710693,-1.04,8.48,0.89,8.58
5.351147890090942,-0.26,7.24,1.12,7.33
5.353070974349976,1.03,5.96,0.95,6.12
5.407849073410034,1.9,5.09,0.51,5.45
5.4104249477386475,2.95,4.42,-0.7,5.35
5.4122960567474365,4.14,3.63,-2.19,5.92
5.414938926696777,5.48,1.98,-3.26,6.67
5.4167640209198,6.65,-0.26,-3.74,7.63
5.420323133468628,7.49,-2.57,-3.65,8.71
5.423121929168701,7.66,-3.47,-3.25,9.01
5.425879955291748,7.14,-1.67,-2.98,7.91
5.4286439418792725,6.26,1.13,-2.88,6.98
5.431411981582642,5.14,2.81,-2.77,6.47
5.4857728481292725,4.0,2.73,-3.14,5.77
5.4879820346832275,3.68,1.52,-3.09,5.03
5.4903481006622314,3.77,-1.06,-1.54,4.2
5.49308180809021,2.99,-2.86,-0.58,4.17
5.495778799057007,2.06,-2.49,0.26,3.24
5.498460054397583,1.69,-1.03,0.05,1.97
5.500301122665405,0.84,-0.36,0.11,0.92
5.5034778118133545,1.09,-0.38,0.77,1.38
5.506225824356079,0.6,-0.6,0.86,1.2
5.508929014205933,0.62,-0.64,0.44,0.99
5.563777923583984,3.95,-0.68,0.93,4.11
5.566425085067749,9.44,-1.44,0.45,9.55
5.5683557987213135,12.38,-3.7,-8.42,15.42
5.571304082870483,9.03,-10.45,-15.8,20.98
5.5738561153411865,-3.68,-15.36,14.3,21.3
5.57661509513855,-15.07,-13.61,35.09,40.54
5.579173803329468,-20.46,-6.37,4.37,21.86
5.581942796707153,-17.63,-3.91,-15.93,24.08
5.583842039108276,-6.15,-9.18,3.93,11.72
5.5866968631744385,5.51,-7.99,3.66,10.37
5.641788959503174,5.89,-2.39,-8.29,10.44
5.6443541049957275,3.12,1.21,-8.99,9.59
5.646207094192505,4.61,0.75,-8.64,9.82
5.64888596534729,6.63,-3.07,-4.48,8.57
5.6508259773254395,6.49,-7.1,1.18,9.69
5.653813123703003,5.11,-8.48,0.72,9.92
5.6565940380096436,3.61,-6.1,1.19,7.18
5.6592748165130615,2.42,-1.7,0.44,2.98
5.662061929702759,2.54,1.35,-1.52,3.25
5.664870977401733,3.53,2.69,-1.87,4.81
5.719725847244263,4.09,3.06,-1.73,5.39
5.721935033798218,4.31,2.53,-1.92,5.35
5.724322080612183,3.4,1.59,-1.21,3.94
5.727036952972412,0.7,0.86,0.66,1.29
5.729880094528198,-3.36,0.62,2.32,4.12
5.732538938522339,-7.53,0.89,3.48,8.34
5.734440088272095,-9.61,1.54,3.08,10.2
5.737307786941528,-8.96,2.16,2.67,9.59
5.74009895324707,-6.3,1.79,2.53,7.02
5.74281907081604,-2.87,0.81,2.24,3.72
5.798073053359985,-0.21,0.21,1.98,2.0
5.80087685585022,0.62,0.3,1.75,1.88
5.802804946899414,-0.71,0.67,1.1,1.47
5.805590867996216,-2.05,0.91,0.24,2.25
5.808335065841675,-2.33,0.65,0.03,2.41
5.811078786849976,-2.61,-0.55,0.78,2.77
5.8139379024505615,-3.29,-1.62,0.95,3.78
5.817019939422607,-3.49,-1.51,0.49,3.83
5.819065809249878,-2.81,-0.95,0.37,2.98
5.835402965545654,-2.26,-0.62,0.27,2.35
5.889801979064941,-2.12,-0.76,-0.29,2.27
5.892388105392456,-1.89,-1.64,-0.7,2.59
5.894308805465698,-2.71,-3.32,-0.77,4.35
5.897027015686035,-4.79,-4.89,-0.03,6.84
5.900451898574829,-3.7,-4.23,0.22,5.62
5.9024670124053955,-0.03,-1.72,0.31,1.74
5.919888973236084,3.27,-0.33,0.93,3.41
5.921947956085205,4.64,-0.88,0.47,4.74
5.924747943878174,3.38,-3.91,-0.87,5.24
5.927621126174927,-0.33,-10.11,-2.03,10.31
5.982961893081665,-6.32,-18.49,-2.08,19.65
5.985567808151245,-11.05,-22.79,0.13,25.32
5.987483978271484,-9.68,-18.22,2.11,20.73
6.004556894302368,-7.18,-10.68,0.97,12.9
6.006626844406128,-6.24,-8.55,1.36,10.67
6.0093629360198975,-6.3,-10.93,0.27,12.61
6.012101888656616,-6.74,-13.77,0.23,15.33
6.014853000640869,-8.08,-13.52,-0.47,15.75
6.017579793930054,-10.58,-10.58,-2.89,15.23
6.0197060108184814,-12.93,-7.03,-3.64,15.16
6.035481929779053,-14.88,-4.73,-2.03,15.74
6.090023994445801,-14.13,-2.44,-0.65,14.35
6.092670917510986,-11.2,-0.23,-4.83,12.19
6.094591856002808,-10.13,1.71,-13.51,16.97
6.097497940063477,-9.49,2.6,-18.54,20.98
6.1006269454956055,-6.88,1.2,-17.0,18.37
6.102580785751343,-1.79,-2.02,-13.05,13.32
6.119837045669556,3.54,-4.64,-9.73,11.34
6.121830940246582,7.29,-3.96,-8.12,11.6
6.124686002731323,7.99,-0.14,-8.47,11.64
6.127478837966919,5.66,3.63,-10.45,12.42
6.182760953903198,2.52,5.69,-11.74,13.28
6.185369968414307,-0.11,6.57,-10.18,12.11
6.187312841415405,-1.96,6.6,-6.83,9.69
6.204198122024536,-3.43,5.72,-3.48,7.52
6.206272840499878,-4.99,4.25,-1.88,6.81
6.209120035171509,-6.45,2.34,-2.11,7.17
6.211893796920776,-6.57,0.62,-3.43,7.43
6.214769124984741,-4.43,-0.95,-3.84,5.93
6.2175281047821045,-1.38,-2.31,-3.31,4.26
6.219573974609375,1.28,-3.44,-4.7,5.96
6.288599014282227,2.41,-3.46,-6.92,8.1
6.29082179069519,3.03,-2.78,-7.67,8.7
6.292729139328003,3.37,-1.62,-7.36,8.25
6.29526686668396,3.92,-1.26,-7.32,8.39
6.2980101108551025,4.38,-1.47,-8.2,9.41
6.300766944885254,5.36,-2.76,-8.51,10.42
6.30302095413208,6.09,-4.2,-9.27,11.86
6.32073187828064,5.92,-4.7,-7.64,10.74
6.322688817977905,5.19,-3.73,-6.6,9.18
6.325546979904175,3.68,-1.91,-8.49,9.44
6.379786968231201,3.47,-0.75,-11.33,11.87
6.382634878158569,5.22,-0.43,-12.6,13.64
6.384555101394653,8.05,-0.55,-12.39,14.78
6.387677907943726,10.3,0.1,-12.74,16.38
6.390440940856934,9.58,1.54,-14.05,17.07
6.393199920654297,7.72,2.82,-12.18,14.69
6.39611291885376,6.84,3.65,-9.12,11.97
6.398826837539673,6.01,3.48,-7.67,10.34
6.400667905807495,5.13,1.43,-5.42,7.59
6.403745889663696,4.39,-3.86,0.85,5.9
6.458101987838745,2.6,-14.69,18.78,23.98
6.4606099128723145,1.74,-24.16,25.21,34.96
6.462471008300781,-1.51,-16.08,11.62,19.89
6.465210914611816,0.13,-1.59,4.58,4.84
6.467901945114136,3.36,4.66,-3.21,6.58
6.469939947128296,5.1,6.55,-12.36,14.88
6.486449956893921,4.06,6.92,-19.0,20.62
6.488466024398804,4.1,5.94,-17.24,18.68
6.491276025772095,7.9,5.17,-10.66,14.23
6.494096040725708,11.79,3.21,-8.19,14.71
6.5484559535980225,12.47,0.03,-8.69,15.19
6.551116943359375,10.82,-2.17,-6.57,12.84
6.553277969360352,7.29,-2.57,-3.07,8.31
6.555989980697632,3.37,-3.59,-0.85,4.99
6.558777093887329,-1.36,-3.09,0.76,3.46
6.561508893966675,-4.28,-2.05,2.26,5.25
6.5643699169158936,-6.08,-0.75,3.03,6.83
6.567301034927368,-5.68,0.5,1.28,5.84
6.569312810897827,-2.71,0.57,-0.35,2.79
6.586140871047974,0.38,-0.07,-0.76,0.85
6.640257120132446,2.97,-0.48,-0.6,3.06
6.642879009246826,4.64,-0.13,-0.72,4.69
6.644802808761597,4.62,0.67,-1.01,4.77
6.647512912750244,3.64,1.21,-0.46,3.86
6.650813817977905,1.71,1.16,0.49,2.12
6.652822017669678,-0.67,0.88,0.52,1.22
6.6704018115997314,-2.26,0.46,0.59,2.38
6.672455072402954,-3.1,0.15,1.06,3.27
6.675148010253906,-3.22,0.01,0.67,3.28
6.677964925765991,-2.51,-0.24,0.42,2.55
6.732731103897095,-1.81,-0.09,0.9,2.02
6.73531699180603,-1.36,-0.71,0.19,1.54
6.737239122390747,-1.33,-1.04,-0.87,1.89
6.754292964935303,-1.95,-1.08,-0.83,2.37
6.756267786026001,-2.63,-1.2,-0.45,2.92
6.758937120437622,-3.21,-0.96,0.96,3.48
6.761682987213135,-3.52,-0.01,3.09,4.68
6.764571905136108,-5.04,0.3,3.88,6.36
6.767382860183716,-6.67,-0.96,0.51,6.75
6.769398927688599,-5.97,-2.54,-1.62,6.68
6.785476922988892,-3.85,-3.07,-0.95,5.01
6.839585065841675,-1.95,-2.71,-1.6,3.7
6.842091798782349,-1.95,-1.91,-2.21,3.51
6.8438849449157715,-2.03,-1.98,-1.1,3.04
6.84667706489563,-2.22,-3.03,-0.41,3.77
6.84931492805481,-2.4,-4.2,2.44,5.41
6.85117506980896,-3.91,-4.47,4.37,7.37
6.854285955429077,-6.9,-5.15,4.02,9.5
6.85705304145813,-9.77,-6.51,3.19,12.16
6.85981297492981,-10.43,-7.3,2.3,12.93
6.862553834915161,-8.28,-7.18,3.12,11.39
6.917042970657349,-6.2,-6.96,3.4,9.92
6.919745922088623,-6.6,-6.94,2.27,9.84
6.921572923660278,-9.4,-7.57,1.09,12.11
6.9381489753723145,-11.32,-9.28,-0.15,14.63
6.940279960632324,-13.6,-11.87,1.04,18.08
6.943096876144409,-15.5,-13.05,1.01,20.28
6.945625066757202,-14.31,-11.07,-0.46,18.09
6.948396921157837,-10.67,-8.01,-1.19,13.39
6.951154947280884,-7.64,-6.67,-1.85,10.3
6.953273057937622,-6.98,-6.69,-4.96,10.86
7.021443128585815,-7.61,-6.66,-7.21,12.41
7.023534059524536,-7.3,-6.16,-5.92,11.23
7.025422811508179,-5.31,-5.24,-3.42,8.2
7.028141021728516,-2.23,-4.34,-3.15,5.8
7.030987977981567,-0.78,-2.98,-7.91,8.48
7.03413200378418,-2.53,-1.0,-12.43,12.72
7.036083936691284,-4.47,0.74,-13.11,13.87
7.054533958435059,-4.39,2.09,-11.65,12.62
7.0565879344940186,-2.39,3.03,-9.11,9.89
7.059441804885864,-0.08,3.74,-6.96,7.9
7.114773988723755,0.87,4.2,-6.11,7.46
7.117412805557251,-0.1,4.93,-6.35,8.03
7.119354009628296,-2.13,5.82,-6.9,9.27
7.121922969818115,-3.89,6.32,-6.86,10.1
7.124772787094116,-4.58,6.79,-6.67,10.56
7.12746787071228,-4.72,6.91,-6.42,10.54
7.130221128463745,-4.2,7.05,-5.6,9.93
7.132883787155151,-3.61,7.32,-4.63,9.38
7.134813070297241,-3.37,7.41,-4.87,9.48
7.137753963470459,-3.21,7.37,-4.77,9.34
7.192950010299683,-2.74,7.09,-4.7,8.93
7.195591926574707,-1.85,6.52,-4.84,8.32
7.1974709033966064,-0.89,5.41,-4.16,6.88
7.201035022735596,0.28,4.19,-2.85,5.07
7.203006982803345,1.32,2.57,-1.71,3.35
7.205748796463013,2.13,0.46,-1.17,2.47
7.208576917648315,2.82,-2.06,-1.92,3.98
7.2112648487091064,3.44,-4.51,-2.88,6.36
7.2140820026397705,3.55,-5.82,-3.72,7.76
7.216681003570557,4.06,-5.45,-4.42,8.1
7.272423028945923,4.45,-4.76,-6.14,8.95
7.274957895278931,3.74,-4.09,-6.47,8.51
7.27688193321228,3.82,-3.7,-4.38,6.88
7.279560804367065,4.13,-3.51,-4.24,6.88
7.282092809677124,6.26,-3.48,-5.89,9.27
7.284842014312744,7.99,-1.92,-10.01,12.95
7.287039041519165,6.69,-0.16,-12.25,13.95
7.302901029586792,6.86,1.23,-8.15,10.72
7.305048942565918,7.53,1.95,-5.33,9.42
7.308686971664429,6.52,2.11,-7.73,10.33
7.364090919494629,3.69,2.25,-9.5,10.43
7.367365121841431,2.37,1.74,-8.05,8.57
7.369310140609741,3.82,0.36,-5.19,6.45
7.371941804885864,4.88,-1.02,-3.73,6.22
7.374729871749878,-3.77,-5.82,6.45,9.47
7.377539873123169,-11.85,-16.94,26.8,33.84
7.380062818527222,0.59,-23.01,16.28,28.19
7.382767915725708,12.2,-13.2,7.54,19.49
7.3846518993377686,9.62,-2.36,-0.83,9.93
7.387480974197388,6.35,3.67,-7.27,10.32
7.442723035812378,6.56,5.76,-10.53,13.67
7.445325136184692,5.11,7.85,-12.12,15.31
7.4472270011901855,3.89,9.22,-11.47,15.22
7.4498350620269775,3.35,8.3,-9.14,12.79
7.4517128467559814,3.71,5.41,-9.17,11.27
7.454770803451538,6.91,0.92,-8.66,11.11
7.457552909851074,9.99,-3.57,-6.52,12.45
7.4602720737457275,10.45,-5.73,-5.35,13.06
7.463053941726685,7.86,-4.95,-3.07,9.78
7.465766906738281,4.31,-3.12,-0.17,5.32
7.468069791793823,1.02,-1.36,1.88,2.53
7.5225818157196045,-2.58,0.09,3.43,4.29
7.525120973587036,-5.18,0.89,2.84,5.97
7.5270469188690186,-6.1,1.11,1.48,6.37
7.52985692024231,-5.1,0.73,0.38,5.16
7.532695055007935,-3.0,-0.32,-0.08,3.01
7.535459995269775,-0.62,-1.33,-0.59,1.58
7.537625074386597,-0.32,-0.93,-1.12,1.49
7.553452014923096,-1.12,-0.22,-1.01,1.52
7.555685997009277,-2.03,0.35,-0.67,2.16
7.558410882949829,-2.9,0.49,-0.12,2.94
7.614032983779907,-4.15,0.19,0.7,4.21
7.617406129837036,-5.83,-0.13,1.57,6.03
7.619476079940796,-7.56,-0.36,2.77,8.05
7.623205900192261,-9.04,-0.27,3.46,9.68
7.62594199180603,-9.58,0.01,3.54,10.21
7.628705978393555,-8.82,0.42,3.38,9.45
7.631532907485962,-7.55,0.8,2.28,7.92
7.63464093208313,-6.01,1.07,1.33,6.24
7.636726140975952,-4.85,1.21,2.02,5.39
7.653033018112183,-3.8,1.4,2.17,4.59
7.7078399658203125,-1.67,1.88,0.76,2.62
7.710471868515015,1.17,3.14,-1.74,3.77
7.71241307258606,4.44,4.28,-3.21,6.95
7.715234994888306,7.01,5.27,-2.96,9.25
7.718069791793823,6.45,5.37,-1.72,8.56
7.720016002655029,2.46,4.68,-1.27,5.43
7.7367918491363525,-0.53,3.69,-1.87,4.17
7.738828897476196,-0.34,2.19,-2.7,3.49
7.74170184135437,1.07,-0.11,-0.46,1.16
7.74452805519104,0.9,-2.76,0.88,3.03
7.800708055496216,-0.4,-4.49,0.93,4.6
7.803499937057495,-0.64,-3.95,0.88,4.09
7.805336952209473,-0.56,-1.6,0.12,1.69
7.808079957962036,-1.28,0.8,-0.26,1.53
7.810740947723389,-1.65,2.07,-1.2,2.9
7.813483953475952,-1.42,2.35,-1.79,3.27
7.816314935684204,-0.92,1.21,-2.69,3.08
7.818130970001221,-0.99,-2.49,-3.26,4.21
7.821425914764404,-3.05,-10.56,-2.63,11.3
7.8240649700164795,-5.58,-23.21,-0.81,23.88
7.8799779415130615,-1.56,-27.19,1.49,27.27
7.882681131362915,4.19,-20.1,-0.28,20.53
7.884644985198975,2.31,-18.65,-3.37,19.09
7.88667893409729,-3.69,-19.48,-1.09,19.85
7.903836965560913,-4.74,-14.57,0.39,15.32
7.9059059619903564,-2.21,-6.73,0.38,7.09
7.908704996109009,-1.71,-2.41,0.2,2.96
7.911465883255005,-3.81,1.03,-0.72,4.01
7.914304971694946,-8.17,4.37,1.12,9.33
7.917038917541504,-12.33,8.22,4.3,15.43
7.97224497795105,-14.71,15.06,6.64,22.07
7.974924802780151,-15.57,27.74,3.45,31.99
7.976871967315674,-14.48,36.47,1.52,39.26
7.979344129562378,-8.48,27.42,-3.52,28.91
7.982253789901733,-5.05,14.54,-7.78,17.24
7.985005140304565,-5.17,8.87,-5.13,11.47
7.987291097640991,-1.89,5.12,-1.15,5.57
8.003945112228394,1.51,1.45,0.5,2.15
8.006008863449097,3.69,-1.84,-0.88,4.21
8.008708953857422,6.06,-6.09,-2.05,8.83
8.065565824508667,8.44,-5.76,-1.9,10.39
8.06818413734436,9.85,-1.0,-3.0,10.34
8.070298910140991,10.84,2.62,-6.07,12.69
8.073295831680298,11.03,4.56,-7.56,14.12
8.07603907585144,10.27,5.14,-5.6,12.77
8.07881498336792,8.68,3.87,-3.26,10.04
8.0816171169281,6.88,1.18,-2.54,7.42
8.0848867893219,4.36,-1.06,-1.81,4.83
8.087049961090088,1.38,-1.18,-0.46,1.87
8.102288961410522,-0.14,-0.13,1.34,1.35
8.159112930297852,0.4,1.0,1.4,1.76
8.161670923233032,1.62,1.43,0.68,2.26
8.163603067398071,3.29,0.29,0.4,3.32
8.166382074356079,4.4,-0.82,0.11,4.47
8.168211936950684,4.3,-0.44,-0.03,4.32
8.17148494720459,3.62,0.72,0.22,3.69
8.174103021621704,3.0,1.23,0.21,3.24
8.176857948303223,2.42,0.28,0.25,2.44
8.17954707145691,1.97,-1.12,1.29,2.6
8.182338953018188,0.87,-2.54,2.31,3.54
8.185086965560913,-1.26,-3.21,2.0,3.98
8.242013931274414,-2.67,-3.02,2.47,4.72
8.244599103927612,-2.25,-1.94,3.39,4.5
8.246501922607422,0.26,-1.3,4.56,4.74
8.24924111366272,3.73,-1.32,4.31,5.85
8.251889944076538,4.46,-0.72,-3.91,5.97
8.254020929336548,0.6,-2.77,-22.11,22.29
8.270264863967896,-2.74,-9.03,-3.16,9.95
8.272434949874878,-8.46,-10.28,22.16,25.85
8.275812864303589,-13.24,-6.98,3.91,15.46
8.27862811088562,-24.85,-9.94,-28.49,39.08
8.331594944000244,-24.88,-28.03,-4.75,37.77
8.33507513999939,8.03,-30.48,39.21,50.3
8.337066888809204,19.28,-8.12,27.75,34.75
8.340796947479248,6.86,7.64,-2.58,10.58
8.343561887741089,1.37,8.76,-3.55,9.55
8.346303939819336,4.0,6.88,-9.81,12.63
8.349030017852783,8.41,9.01,-18.96,22.61
8.351741075515747,11.5,9.46,-11.49,18.8
8.353670835494995,11.85,5.83,-4.76,14.03
8.368994951248169,9.78,0.77,-4.72,10.88
8.42149806022644,6.15,-1.9,-1.02,6.51
8.423871994018555,1.79,-3.93,3.27,5.41
8.425729990005493,-2.94,-5.09,3.57,6.87
8.428529024124146,-6.73,-4.26,3.13,8.55
8.431331872940063,-8.87,-2.02,3.23,9.65
8.43479299545288,-9.49,0.3,2.23,9.75
8.436643838882446,-8.73,1.78,1.72,9.07
8.439480066299438,-7.1,2.23,2.04,7.71
8.442364931106567,-6.28,2.11,1.68,6.83
8.445120096206665,-5.79,1.46,1.93,6.27
8.498349905014038,-5.4,1.02,2.0,5.84
8.501161813735962,-5.04,0.64,-0.33,5.09
8.503175020217896,-3.53,-0.39,-0.28,3.56
8.50682806968689,-1.41,-1.05,1.8,2.51
8.509694814682007,0.01,-1.09,1.25,1.65
8.51242709159851,-0.21,-0.4,0.27,0.52
8.515275001525879,-1.35,1.41,0.08,1.95
8.51834511756897,-1.52,3.41,-0.68,3.79
8.520468950271606,-0.2,5.48,-1.63,5.72
8.536633968353271,1.6,6.89,-1.78,7.29
8.589676141738892,2.17,6.81,-0.14,7.14
8.592207908630371,0.75,3.9,1.17,4.14
8.594170808792114,-1.92,-0.79,1.12,2.35
8.59689998626709,-2.52,-5.1,0.77,5.74
8.59944200515747,0.48,-6.18,-0.09,6.19
8.60220193862915,2.54,-4.53,0.09,5.19
8.604435920715332,0.16,-3.23,1.03,3.39
8.620710134506226,-1.74,-3.75,0.52,4.16
8.62279486656189,-2.26,-6.31,-1.57,6.88
8.625541925430298,-4.11,-13.38,-1.72,14.1
8.679316997528076,-6.94,-23.87,-0.79,24.87
8.682153940200806,-3.58,-26.55,0.28,26.79
8.684025049209595,3.2,-21.54,-2.67,21.93
8.685964822769165,3.35,-18.11,-3.62,18.76
8.7031729221344,-1.68,-14.6,-1.06,14.73
8.705164909362793,-3.15,-8.0,-0.22,8.6
8.707844972610474,-2.45,-3.25,-1.38,4.29
8.71061897277832,-5.11,0.1,-2.32,5.61
8.713291883468628,-9.47,4.22,1.26,10.44
8.71592092514038,-14.1,8.84,5.51,17.53
8.769737958908081,-16.66,17.42,5.67,24.76
8.772221803665161,-17.1,31.54,2.56,35.96
8.774426937103271,-12.87,35.01,-1.14,37.31
8.777270078659058,-4.63,21.86,-5.67,23.05
8.780022859573364,-1.55,12.42,-5.08,13.5
8.782863855361938,-1.34,7.85,-3.7,8.78
8.785592794418335,-1.06,4.52,-3.44,5.77
8.787700891494751,0.75,2.49,-3.39,4.27
8.804271936416626,3.75,1.62,-2.36,4.71
8.806307077407837,6.26,1.02,-1.31,6.47
8.860955953598022,7.06,1.71,-0.31,7.27
8.863577127456665,7.28,2.79,-0.68,7.82
8.865463972091675,7.5,3.42,-2.79,8.7
8.868860006332397,7.92,3.54,-4.1,9.59
8.870866060256958,8.51,2.77,-2.53,9.3
8.888190984725952,9.09,0.75,-0.73,9.15
8.89019513130188,8.78,-1.64,-0.36,8.93
8.893122911453247,7.46,-3.12,-0.86,8.13
8.895859956741333,5.16,-2.9,-0.69,5.95
8.89855694770813,3.32,-1.84,0.57,3.83
8.90165400505066,2.95,-0.81,1.01,3.22
8.955482959747314,3.51,-1.18,0.88,3.8
8.958055973052979,3.96,-1.73,0.76,4.38
8.959971904754639,5.06,-2.04,0.82,5.51
8.962634801864624,4.02,-1.32,1.53,4.49
8.965364933013916,1.2,0.25,1.93,2.28
8.968589067459106,-1.14,1.03,2.41,2.85
8.97049880027771,-2.24,0.83,2.82,3.69
8.987982988357544,-2.59,0.49,4.23,4.98
8.990020036697388,-2.22,0.95,4.97,5.52
8.992679834365845,-1.37,1.11,4.81,5.12
9.048233985900879,0.45,0.78,3.35,3.46
9.051442861557007,3.62,-0.53,2.47,4.41
9.053360939025879,4.47,-2.07,-3.86,6.25
9.056023836135864,-0.59,-5.43,-20.76,21.46
9.058836936950684,-0.25,-10.45,2.26,10.69
9.06160283088684,-5.75,-8.05,19.93,22.25
9.064194917678833,-11.1,-2.18,-6.3,12.94
9.066864013671875,-20.83,-1.4,-34.01,39.9
9.068745851516724,-25.03,-20.45,-14.59,35.46
9.071546792984009,1.45,-39.94,25.86,47.6
9.122988939285278,19.4,-21.1,37.85,47.47
9.125561952590942,7.03,2.34,8.3,11.12
9.127388000488281,-0.7,7.68,-4.04,8.7
9.130016088485718,1.23,6.19,-8.82,10.84
9.132613897323608,6.58,5.02,-16.7,18.63
9.135320901870728,9.27,5.8,-13.91,17.69
9.137229919433594,11.66,5.54,-10.8,16.83
9.15445590019226,13.73,3.24,-8.82,16.63
9.15644097328186,13.06,0.66,-3.02,13.42
9.15934681892395,8.71,-0.9,-0.19,8.75
9.211230993270874,2.59,-1.39,0.74,3.03
9.2137930393219,-3.03,-1.22,2.84,4.32
9.215650796890259,-7.06,-0.5,2.82,7.61
9.21876311302185,-9.38,0.4,2.64,9.75
9.220816850662231,-9.11,1.24,3.08,9.69
9.237740993499756,-7.83,1.55,3.41,8.67
9.239758968353271,-7.26,2.27,3.12,8.22
9.242626905441284,-7.18,2.38,2.39,7.93
9.245357990264893,-6.79,1.54,1.44,7.1
9.248117923736572,-5.5,0.69,0.78,5.59
9.299855947494507,-3.48,-0.02,1.49,3.78
9.302508115768433,-2.41,-0.62,2.21,3.32
9.30440878868103,-3.15,-1.06,2.88,4.39
9.307240962982178,-4.9,-1.47,2.62,5.74
9.31007695198059,-6.36,-1.35,1.62,6.7
9.312825918197632,-6.3,-0.55,0.76,6.36
9.315701007843018,-4.59,0.7,-0.57,4.67
9.318617105484009,-1.71,1.9,-0.93,2.72
9.320604085922241,2.14,2.94,-0.35,3.65
9.336819887161255,4.94,3.25,-0.16,5.91
9.387908935546875,2.81,2.52,0.58,3.81
9.390666007995605,-0.33,1.12,0.28,1.2
9.392575025558472,1.37,1.62,-0.38,2.15
9.39537787437439,3.48,3.23,0.44,4.76
9.397928953170776,2.29,3.03,0.18,3.8
9.40062403678894,-2.05,0.24,-1.23,2.4
9.402437925338745,-5.87,-4.68,-0.93,7.56
9.405306100845337,-9.19,-12.95,-0.09,15.87
9.40812087059021,-9.88,-21.77,-0.65,23.91
9.410884141921997,-2.6,-22.6,-1.6,22.8
9.463054895401001,5.13,-18.45,-1.85,19.23
9.465673923492432,4.52,-18.48,-3.32,19.31
9.467536926269531,-0.24,-19.57,-1.76,19.65
9.46951699256897,-2.15,-15.53,0.27,15.68
9.487105131149292,-1.52,-9.99,-0.59,10.12
9.489089012145996,-2.94,-6.15,-0.07,6.81
9.492784023284912,-5.92,-2.58,-1.34,6.59
9.495546102523804,-8.49,1.04,-1.26,8.64
9.498335123062134,-10.9,4.1,0.32,11.64
9.501077890396118,-13.48,7.66,3.06,15.8
9.55269193649292,-14.84,14.11,3.97,20.85
9.55514407157898,-14.81,23.63,-0.92,27.9
9.557069063186646,-11.82,26.59,-7.46,30.03
9.559531927108765,-5.44,19.4,-11.98,23.44
9.562263011932373,-0.87,13.0,-8.04,15.31
9.565036058425903,2.16,8.9,-0.46,9.16
9.567728996276855,3.07,5.44,0.93,6.31
9.569600820541382,1.83,3.38,-1.29,4.05
9.572488069534302,1.82,3.12,-3.1,4.75
9.575227975845337,4.07,3.37,-3.14,6.14
9.577975034713745,6.86,3.45,-2.41,8.04
9.630614995956421,8.06,4.01,-1.84,9.18
9.63313603401184,7.1,5.13,-1.12,8.83
9.634989976882935,5.78,5.59,0.2,8.04
9.636906862258911,5.16,4.83,0.09,7.06
9.65507197380066,4.77,2.76,-1.56,5.72
9.657088041305542,5.06,-0.28,-2.98,5.87
9.65994381904602,6.37,-3.78,-2.78,7.91
9.662753820419312,7.06,-5.96,-0.88,9.28
9.665537118911743,5.56,-5.01,0.87,7.53
9.668715953826904,3.27,-2.5,1.4,4.34
9.720703840255737,1.64,-1.16,1.28,2.38
9.723265886306763,2.6,-1.08,0.56,2.87
9.725183963775635,3.3,-0.55,0.02,3.34
9.727894067764282,2.91,0.45,-0.12,2.94
9.730653047561646,3.52,0.42,-0.77,3.62
9.733449935913086,3.99,0.45,-0.59,4.05
9.736228942871094,3.38,1.02,0.11,3.53
9.738219976425171,2.68,1.16,0.17,2.92
9.755352973937988,2.68,1.69,0.44,3.19
9.757287979125977,3.01,2.23,0.55,3.78
9.811158895492554,1.9,2.69,-0.36,3.31
9.813639879226685,0.6,2.23,-0.85,2.46
9.815546989440918,0.76,1.43,0.3,1.64
9.818925142288208,2.24,0.78,1.65,2.88
9.820899963378906,3.68,0.62,-0.49,3.76
9.823645830154419,2.89,1.63,-3.2,4.6
9.826422929763794,-0.24,0.49,-2.79,2.84
9.829192876815796,-2.73,-5.47,-1.7,6.34
9.831988096237183,-5.59,-11.26,-1.34,12.64
9.835284948348999,-6.7,-9.74,5.62,13.08
9.888073921203613,-5.51,-5.64,0.74,7.91
9.890676975250244,-10.71,-5.8,-0.47,12.18
9.892608880996704,-14.1,-11.63,-2.55,18.45
9.895384073257446,-11.03,-22.89,8.81,26.89
9.898085832595825,-1.31,-20.99,17.0,27.04
9.900651931762695,5.42,-6.97,4.14,9.75
9.90248990058899,8.09,0.52,-3.64,8.88
9.905674934387207,10.23,2.44,-7.06,12.66
9.908438920974731,11.63,3.84,-11.41,16.73
9.911307096481323,11.58,6.18,-11.17,17.23
9.965012788772583,10.62,8.74,-9.97,16.98
9.968583822250366,9.95,8.69,-7.73,15.3
9.970741033554077,8.79,6.12,-3.16,11.16
9.973453998565674,6.35,3.3,-0.06,7.15
9.975950956344604,2.3,-0.13,1.52,2.75
9.978683948516846,-2.47,-3.83,2.56,5.22
9.981303930282593,-5.9,-7.55,2.73,9.96
9.984019041061401,-7.22,-8.3,3.3,11.48
9.985830068588257,-6.37,-5.17,3.3,8.84
9.988662004470825,-5.3,-1.56,2.56,6.08
10.042828798294067,-5.42,0.19,2.23,5.86
10.045356035232544,-5.94,1.33,1.32,6.22
10.047188997268677,-5.34,2.27,0.48,5.82
10.050028085708618,-3.93,2.51,0.11,4.66
10.052663087844849,-3.14,2.64,-0.46,4.12
10.054877996444702,-3.32,2.61,-0.97,4.33
10.072109937667847,-3.17,2.17,-0.89,3.94
10.073988914489746,-1.72,0.94,-0.89,2.15
10.076748132705688,-0.51,-0.59,0.24,0.81
10.079559087753296,-0.49,-1.48,1.76,2.35
10.1336989402771,-0.05,-0.92,1.96,2.16
10.136577844619751,1.03,1.24,1.18,1.99
10.138631105422974,0.77,3.18,1.21,3.48
10.141513109207153,-1.5,3.32,0.77,3.72
10.14427399635315,-4.18,1.61,-1.03,4.59
10.14700698852539,-5.29,-1.14,-2.19,5.83
10.14982295036316,-5.77,-4.42,-1.16,7.36
10.152671098709106,-3.18,-5.7,-0.26,6.53
10.154608011245728,2.05,-3.08,-0.95,3.81
10.170803785324097,5.51,0.02,0.14,5.51
10.224899053573608,5.22,1.7,0.62,5.52
10.227466821670532,1.51,1.49,-0.21,2.13
10.229424953460693,-2.87,-1.96,-0.52,3.51
10.232103109359741,-7.61,-10.57,0.29,13.02
10.235569953918457,-11.79,-21.88,1.96,24.93
10.237541913986206,-6.59,-24.09,4.42,25.36
10.24015212059021,0.46,-17.68,2.11,17.81
10.242893934249878,1.65,-14.79,0.4,14.88
10.245666980743408,-3.57,-15.89,1.43,16.34
10.248482942581177,-6.82,-18.08,1.26,19.36
10.251167058944702,-7.93,-16.86,2.25,18.76
10.305229902267456,-9.22,-13.19,-0.53,16.1
10.307898998260498,-12.12,-9.08,-3.87,15.63
10.309827089309692,-14.3,-5.13,-5.23,16.06
10.312520980834961,-16.2,-2.83,-6.04,17.51
10.31526494026184,-15.98,-0.71,-6.82,17.38
10.317915916442871,-13.81,1.24,-11.64,18.1
10.319888830184937,-11.42,2.97,-17.24,20.89
10.322750806808472,-7.38,4.03,-18.54,20.35
10.325532913208008,-1.24,2.86,-15.88,16.18
10.328150033950806,5.43,0.87,-11.66,12.89
10.383018016815186,9.78,0.27,-8.12,12.71
10.385617971420288,9.61,1.12,-7.31,12.12
10.387694120407104,5.45,2.69,-9.41,11.2
10.391380071640015,0.74,4.45,-11.23,12.1
10.394186019897461,-2.5,6.09,-10.25,12.18
10.396984815597534,-4.22,7.38,-7.11,11.08
10.399824857711792,-5.42,8.09,-4.38,10.67
10.40253496170044,-6.63,7.7,-2.63,10.49
10.404606103897095,-7.58,6.91,-1.03,10.3
10.420829057693481,-7.76,6.04,0.09,9.83
10.475703954696655,-6.83,4.66,-0.07,8.26
10.478278875350952,-5.6,2.97,-1.77,6.58
10.480149984359741,-4.55,1.22,-3.4,5.8
10.482995986938477,-3.44,-0.32,-4.35,5.55
10.485800981521606,-1.92,-1.51,-5.19,5.73
10.48849892616272,-0.12,-2.82,-5.67,6.33
10.505493879318237,2.56,-5.21,-6.89,9.0
10.507563829421997,5.8,-7.22,-8.8,12.77
10.51041579246521,8.01,-6.98,-9.91,14.52
10.513163805007935,8.46,-3.82,-9.88,13.55
10.56920313835144,7.78,-0.58,-8.89,11.82
10.571806907653809,7.06,1.07,-7.29,10.2
10.573662996292114,5.59,0.01,-7.68,9.49
10.589342832565308,3.62,-2.79,-6.61,8.03
10.591418981552124,2.68,-5.88,-4.42,7.82
10.594244003295898,2.27,-7.17,-4.79,8.91
10.596937894821167,3.65,-5.4,-7.74,10.11
10.599807024002075,7.38,-1.88,-10.99,13.37
10.60259199142456,8.77,1.02,-11.63,14.6
10.604769945144653,10.23,2.39,-9.81,14.37
10.67455792427063,10.97,2.51,-12.29,16.66
10.676758050918579,9.21,1.35,-13.29,16.22
10.678692102432251,6.39,-2.44,-8.72,11.08
10.681396007537842,2.63,-9.69,1.89,10.21
10.6841139793396,-3.88,-19.86,19.08,27.81
10.685998916625977,-2.32,-22.77,14.49,27.08
10.68922209739685,3.97,-10.07,5.18,11.99
10.691981077194214,4.67,1.34,0.24,4.86
10.694775819778442,3.1,5.9,-7.6,10.1
10.697502851486206,0.16,7.45,-9.73,12.25
10.753689050674438,-1.42,7.81,-7.48,10.9
10.75621485710144,1.45,7.2,-5.31,9.06
10.758053064346313,5.86,4.88,-5.52,9.41
10.77289080619812,9.03,0.9,-8.93,12.73
10.774893999099731,12.02,-3.23,-8.98,15.34
10.777692079544067,13.84,-4.94,-2.91,14.98
10.780447006225586,10.59,-3.39,0.01,11.11
10.783241033554077,4.06,-0.78,-1.28,4.32
10.786119937896729,-0.21,0.21,0.37,0.47
10.788223028182983,-2.77,0.63,1.61,3.26
10.85881781578064,-3.25,0.58,0.44,3.33
10.860834836959839,-2.2,0.39,0.08,2.23
10.862766981124878,-0.36,-0.21,0.26,0.49
10.86575698852539,0.89,-0.78,-0.26,1.21
10.869112968444824,1.57,-0.78,-1.04,2.03
10.870953798294067,1.16,-0.37,-0.81,1.46
10.87363886833191,0.49,-0.15,-0.8,0.95
10.876320123672485,0.0,-0.22,-1.2,1.22
10.879079103469849,-0.88,0.19,-0.98,1.33
10.881789922714233,-1.62,0.67,-0.3,1.77
10.938931941986084,-1.91,0.8,0.34,2.09
10.941133975982666,-1.65,0.65,0.83,1.95
10.943493127822876,-1.39,0.35,1.31,1.94
10.946294069290161,-1.63,0.1,1.15,1.99
10.949097871780396,-1.92,-0.04,0.3,1.94
10.951781034469604,-1.56,-0.34,-0.47,1.66
10.953717947006226,-0.92,-0.55,-0.86,1.37
10.956342935562134,-0.53,-0.52,-0.97,1.22
10.958992958068848,-0.81,-0.05,-1.65,1.83
10.96177887916565,-1.81,0.22,-1.43,2.31
10.964576005935669,-2.5,0.11,-0.73,2.6
11.021114110946655,-2.76,0.01,-0.67,2.84
11.023692846298218,-2.44,0.05,0.51,2.49
11.025537014007568,-2.47,-0.18,0.79,2.59
11.039653062820435,-2.72,-0.52,-0.4,2.79
11.041680097579956,-2.27,-0.78,-0.81,2.53
11.044648885726929,-1.57,-0.93,-0.65,1.93
11.047446012496948,-0.74,-0.89,-1.19,1.66
11.050297021865845,-0.78,-0.28,-2.26,2.4
11.053112983703613,-1.44,0.06,-2.23,2.65
11.055145025253296,-1.13,0.32,-0.93,1.49
11.12578296661377,-1.11,0.06,-0.59,1.25
11.127983808517456,-2.17,-0.74,-0.49,2.34
11.12992787361145,-2.8,-1.64,-0.54,3.28
11.133137941360474,-2.62,-2.29,0.2,3.48
11.136420965194702,-2.72,-2.74,1.28,4.06
11.138420820236206,-3.1,-2.81,1.68,4.5
11.155708074569702,-3.26,-2.22,2.37,4.6
11.1576988697052,-2.87,-1.72,1.73,3.76
11.161504030227661,-2.34,-2.03,0.61,3.15
11.164165019989014,-1.82,-2.86,0.51,3.42
11.222064971923828,-1.26,-3.85,1.37,4.27
11.224622011184692,-2.15,-5.04,1.96,5.81
11.226476907730103,-4.16,-5.83,0.72,7.19
11.237324953079224,-7.23,-6.11,-1.7,9.61
11.239408016204834,-9.87,-7.81,-1.61,12.68
11.242300987243652,-12.21,-10.38,-2.86,16.27
11.245116949081421,-14.83,-13.95,-3.3,20.62
11.247660875320435,-16.39,-17.57,-1.42,24.06
11.250449895858765,-17.65,-18.45,-0.71,25.54
11.253368139266968,-17.43,-16.65,-1.15,24.13
11.310235023498535,-16.01,-13.08,-2.2,20.79
11.312802076339722,-15.17,-9.58,-2.81,18.16
11.31475281715393,-11.5,-7.36,-1.84,13.77
11.317445039749146,-7.43,-6.26,-3.63,10.37
11.32015585899353,-5.93,-6.9,-4.69,10.23
11.32252287864685,-4.8,-7.97,-4.76,10.45
11.339668989181519,-2.07,-6.68,-4.77,8.46
11.341695070266724,1.66,-3.52,-7.4,8.36
11.344474077224731,2.08,-1.2,-10.04,10.32
11.347270965576172,0.73,-0.26,-10.13,10.15
11.405395984649658,-0.02,0.84,-9.95,9.98
11.407942056655884,-0.63,2.85,-8.56,9.04
11.409798860549927,-0.97,4.8,-6.87,8.43
11.423592805862427,-0.83,6.2,-5.64,8.42
11.425648927688599,-1.36,6.91,-5.56,8.97
11.428498029708862,-2.26,6.85,-6.42,9.65
11.431091070175171,-2.54,6.58,-7.48,10.28
11.433789014816284,-1.78,6.75,-7.87,10.51
11.436694860458374,-0.29,7.47,-7.71,10.73
11.438804864883423,1.0,8.44,-7.16,11.11
11.50999903678894,1.38,9.75,-6.42,11.75
11.512215852737427,0.77,11.58,-5.5,12.84
11.514137983322144,-0.34,13.24,-3.85,13.79
11.516953945159912,-1.27,13.93,-1.6,14.07
11.519901990890503,-1.6,14.21,-0.26,14.3
11.522167921066284,-1.35,13.45,-0.53,13.52
11.539731979370117,-0.75,11.74,-1.83,11.9
11.54177212715149,0.14,9.7,-3.47,10.3
11.544566869735718,1.29,7.74,-5.41,9.53
11.547334909439087,3.1,5.16,-6.39,8.77
11.605808019638062,5.32,1.92,-7.6,9.47
11.608392000198364,7.63,0.07,-8.35,11.31
11.610237836837769,9.39,-1.07,-8.41,12.65
11.622955083847046,10.49,-1.57,-8.31,13.47
11.624998807907104,10.91,-0.57,-8.3,13.72
11.62771201133728,10.78,0.91,-7.99,13.44
11.630475997924805,9.42,2.4,-7.11,12.04
11.63326096534729,7.45,3.61,-5.19,9.77
11.636428117752075,5.68,4.08,-3.45,7.79
11.638556957244873,4.33,3.81,-2.08,6.13
11.71005892753601,4.32,3.2,-0.56,5.4
11.712241888046265,6.24,2.24,-0.4,6.64
11.71414589881897,7.19,1.78,-0.69,7.43
11.716954946517944,6.66,1.85,-1.1,6.99
11.71992802619934,6.01,1.29,-1.31,6.28
11.721915006637573,4.93,0.17,-1.15,5.06
11.740118980407715,3.12,-0.67,-0.86,3.3
11.742133855819702,1.86,-1.49,-0.01,2.38
11.745331048965454,0.93,-1.71,0.86,2.12
11.748124837875366,0.47,-1.54,1.54,2.22
11.750903844833374,-0.21,-0.72,2.02,2.15
11.809839010238647,-1.5,0.35,2.49,2.92
11.812039136886597,-2.04,1.22,2.38,3.36
11.814368963241577,-1.46,1.27,1.94,2.74
11.817317008972168,-0.39,0.38,1.65,1.73
11.820093870162964,1.16,-1.24,1.13,2.03
11.822220087051392,1.75,-2.33,2.7,3.97
11.839392900466919,4.36,-2.44,1.47,5.2
11.841336965560913,7.15,-1.47,-2.66,7.76
11.845103025436401,-0.1,-1.73,-9.93,10.08
11.847884893417358,-12.95,-7.93,-13.02,20.0
11.908025026321411,-12.11,-11.06,4.85,17.1
11.910630941390991,0.14,-4.84,3.69,6.08
11.912460088729858,-4.1,-2.19,-6.82,8.25
11.922693967819214,-17.74,-27.39,0.43,32.63
11.924736022949219,-5.0,-37.91,28.74,47.83
11.927292108535767,11.27,-12.23,33.21,37.14
11.930068016052246,6.12,2.59,6.3,9.15
11.932832956314087,-0.28,7.62,-13.2,15.24
11.935396909713745,-1.65,9.48,-6.71,11.73
11.938205003738403,4.59,10.51,-12.25,16.78
11.998347997665405,9.49,12.02,-19.2,24.55
12.000954866409302,11.29,9.5,-14.41,20.62
12.002896070480347,12.15,3.19,-7.36,14.55
12.005285024642944,10.85,-2.63,-4.25,11.94
12.02347993850708,7.37,-6.01,-0.97,9.55
12.025690793991089,3.02,-7.17,2.99,8.33
12.028316020965576,-3.4,-5.66,4.34,7.9
12.03104281425476,-9.86,-2.83,5.37,11.57
12.033902883529663,-14.02,-0.57,6.44,15.43
12.036629915237427,-14.43,0.28,5.64,15.49
12.096431016921997,-12.12,0.74,4.37,12.9
12.098986864089966,-9.18,1.25,2.94,9.72
12.100996017456055,-6.56,1.01,1.57,6.82
12.103796005249023,-4.47,0.81,0.38,4.55
12.106467008590698,-3.34,0.42,-0.15,3.36
12.123220920562744,-4.58,-0.64,0.67,4.67
12.125383138656616,-6.43,-1.01,2.65,7.02
12.128133058547974,-5.54,0.11,1.03,5.63
12.13087010383606,-1.85,1.85,-1.58,3.05
12.133711099624634,2.79,3.56,-1.37,4.72
12.195985078811646,5.23,3.91,0.92,6.59
12.198166131973267,2.84,2.93,2.27,4.66
12.200598001480103,-0.89,1.73,1.19,2.28
12.203516006469727,-1.63,1.56,-0.43,2.29
12.20563006401062,0.59,2.56,-0.74,2.72
12.2235689163208,2.38,3.62,0.05,4.33
12.225618124008179,0.75,3.44,-0.49,3.55
12.228366136550903,-2.72,1.41,-1.24,3.3
12.231076955795288,-5.24,-1.75,-0.93,5.6
12.233970880508423,-5.59,-6.13,-1.54,8.43
12.29565691947937,-5.33,-12.92,-1.76,14.08
12.297888994216919,-4.6,-21.51,0.76,22.0
12.300321817398071,-0.58,-24.55,2.62,24.69
12.303417921066284,4.68,-20.3,2.31,20.96
12.305422067642212,3.5,-19.64,0.82,19.96
12.322880029678345,-1.64,-22.77,1.45,22.87
12.324947118759155,-4.22,-23.34,2.22,23.82
12.327714920043945,-3.54,-17.57,4.21,18.41
12.330501794815063,-1.77,-8.47,3.62,9.37
12.3332998752594,-1.97,-2.6,-0.52,3.3
12.395833969116211,-4.49,0.43,-1.61,4.78
12.398060083389282,-9.95,3.79,0.65,10.66
12.399986028671265,-15.7,8.8,1.0,18.02
12.403464078903198,-18.27,20.44,1.07,27.43
12.405458927154541,-15.9,39.77,-1.48,42.85
12.408252000808716,-6.68,38.7,-1.21,39.29
12.410995960235596,1.31,21.09,-0.67,21.14
12.41375994682312,1.9,11.27,-2.43,11.68
12.416435956954956,1.98,6.01,-3.69,7.32
12.419936895370483,2.56,3.94,-0.49,4.72
12.481926918029785,3.16,3.88,1.71,5.28
12.484474897384644,2.53,4.97,1.43,5.75
12.486409902572632,1.63,6.79,1.26,7.09
12.488317966461182,0.53,8.75,2.15,9.02
12.506704092025757,0.75,9.31,2.12,9.57
12.508677959442139,2.83,7.69,0.38,8.2
12.511523008346558,3.95,5.34,-2.28,7.02
12.514267921447754,5.11,2.34,-2.83,6.29
12.516827821731567,7.06,-1.59,-3.06,7.85
12.520097017288208,10.29,-7.89,-3.02,13.31
12.521953821182251,11.94,-11.38,-2.95,16.75
12.598451852798462,10.31,-6.78,-3.21,12.75
12.6006600856781,7.24,-0.06,-4.25,8.39
12.602608919143677,4.92,2.76,-4.03,6.93
12.605365991592407,3.68,2.82,-2.33,5.18
12.624111890792847,2.49,1.44,-0.34,2.89
12.626150846481323,2.11,-0.49,0.38,2.19
12.628919839859009,1.72,-1.97,-0.15,2.61
12.631712913513184,-0.07,-2.51,-0.98,2.69
12.63448190689087,-3.3,-2.07,-1.46,4.16
12.637103796005249,-4.79,-1.03,-0.87,4.97
12.699566125869751,-3.12,0.51,-0.49,3.19
12.702148914337158,0.8,1.15,-0.16,1.41
12.704286813735962,6.87,0.5,-0.91,6.94
12.707430124282837,11.49,-0.57,-15.49,19.29
12.710200071334839,11.37,-5.13,-19.97,23.54
12.712732076644897,-4.87,-16.74,11.94,21.13
12.715543985366821,-19.61,-20.24,27.21,39.17
12.718148946762085,-16.57,-10.58,-9.25,21.72
12.72082781791687,-16.51,-9.22,0.39,18.91
12.722769975662231,-8.13,-11.97,11.94,18.76
12.800048112869263,0.9,-8.23,2.73,8.71
12.802255868911743,4.35,-4.37,5.45,8.22
12.80417513847351,7.56,-1.06,-4.82,9.02
12.807224035263062,9.94,1.22,-8.48,13.12
12.810016870498657,10.67,0.8,-6.6,12.57
12.812791109085083,9.88,-1.49,-5.5,11.4
12.81552791595459,8.91,-3.22,-2.48,9.79
12.818372964859009,7.45,-2.78,-1.83,8.15
12.820766925811768,5.5,-0.72,-0.35,5.55
12.822576999664307,3.13,0.95,1.65,3.66
12.900816917419434,0.65,1.2,1.77,2.23
12.903060913085938,-1.82,1.56,2.01,3.12
12.904945135116577,-3.25,2.25,1.5,4.22
12.90767788887024,-3.23,2.47,0.49,4.09
12.910453081130981,-4.0,2.55,0.87,4.82
12.913223028182983,-6.36,2.34,0.72,6.81
12.915985822677612,-8.7,1.39,-0.18,8.81
12.91870379447937,-9.21,0.94,0.8,9.29
12.920588970184326,-7.11,0.57,1.4,7.26
12.9236581325531,-4.5,0.36,1.67,4.81
12.988899946212769,-3.09,-0.08,3.09,4.37
12.991927862167358,-3.61,-0.56,4.78,6.01
12.993818044662476,-4.89,-0.73,4.53,6.7
12.996494054794312,-4.59,-0.18,3.03,5.5
12.99931001663208,-3.29,0.3,1.96,3.84
13.001977920532227,-2.71,0.19,1.1,2.93
13.003865003585815,-0.85,0.03,1.62,1.82
13.007568120956421,2.55,0.93,0.19,2.72
13.010191917419434,5.47,2.46,0.37,6.0
13.012969017028809,5.5,3.2,0.62,6.39
13.079277992248535,1.29,2.58,0.09,2.88
13.08185601234436,-2.9,0.7,-0.34,3.0
13.083753824234009,-3.99,-1.35,-0.05,4.21
13.087202787399292,-2.44,-2.4,-0.79,3.51
13.089547872543335,-0.34,-2.85,-2.24,3.64
13.09244704246521,-1.16,-5.53,-1.56,5.86
13.09521198272705,-4.36,-10.87,-1.13,11.76
13.098007917404175,-4.66,-16.23,-1.17,16.92
13.100796937942505,0.76,-18.12,0.77,18.15
13.103693008422852,5.86,-18.5,-0.06,19.4
13.170383930206299,5.25,-20.83,0.0,21.48
13.172851800918579,0.32,-23.7,-0.15,23.7
13.174696922302246,-3.24,-19.92,4.33,20.64
13.178230047225952,-1.55,-12.35,2.68,12.73
13.181052923202515,-0.19,-7.66,-0.7,7.69
13.183894872665405,-1.41,-3.44,-2.34,4.39
13.187259912490845,-3.55,0.31,-4.45,5.7
13.189474821090698,-7.58,3.53,-6.0,10.29
13.206271886825562,-14.46,7.79,-1.0,16.45
13.208316087722778,-19.04,14.33,4.92,24.33
13.275797128677368,-17.55,23.34,6.91,30.0
13.278486967086792,-11.19,29.42,5.81,32.0
13.280328035354614,-3.38,25.04,1.47,25.3
13.282976865768433,-0.78,16.43,-4.98,17.18
13.285614013671875,-2.47,10.33,-5.91,12.15
13.28753113746643,-2.57,7.25,-4.68,9.0
13.290679931640625,-1.41,5.21,-2.17,5.81
13.293345928192139,0.82,4.31,0.25,4.39
13.295934915542603,2.88,4.73,1.58,5.75
13.298728942871094,3.65,5.91,1.28,7.06
13.301568984985352,4.43,6.33,0.01,7.72
13.368950128555298,6.07,6.3,-1.52,8.87
13.371278047561646,7.62,6.28,-2.03,10.08
13.37343692779541,8.16,6.31,-1.33,10.4
13.376281023025513,7.41,5.37,-0.77,9.18
13.379002809524536,5.45,2.88,0.45,6.18
13.381789922714233,3.17,-0.61,1.59,3.59
13.384652853012085,1.69,-4.93,3.14,6.08
13.387510061264038,2.96,-9.07,2.61,9.89
13.389644861221313,5.0,-9.45,1.19,10.75
13.406655073165894,4.63,-4.8,1.11,6.76
13.47395396232605,4.23,-0.81,-0.25,4.31
13.476569890975952,4.45,1.38,-1.13,4.79
13.47848391532898,5.62,2.41,-0.49,6.13
13.481213808059692,7.36,1.9,0.05,7.6
13.484014987945557,6.13,1.21,-0.27,6.25
13.487375974655151,1.63,0.06,-0.99,1.9
13.489532947540283,-2.18,-1.14,-0.19,2.46
13.507117986679077,-3.88,-1.52,1.78,4.53
13.509045839309692,-3.63,-1.25,3.42,5.14
13.511996984481812,-2.29,-0.56,4.34,4.93
13.58083987236023,0.71,-0.48,4.03,4.12
13.583409070968628,4.63,-0.45,0.52,4.68
13.585299015045166,5.63,-1.04,-10.76,12.18
13.588099002838135,2.64,-6.3,-6.71,9.57
13.590227842330933,-3.61,-14.29,10.43,18.05
13.606353044509888,-6.86,-9.43,6.14,13.17
13.608447790145874,-9.48,1.12,-11.47,14.92
13.611248970031738,-15.44,-0.01,-12.73,20.01
13.614028930664062,-21.79,-17.57,-11.17,30.13
13.616765022277832,-14.21,-38.51,20.59,45.92
13.686267137527466,1.97,-23.67,39.37,45.97
13.68834900856018,2.14,0.26,7.85,8.14
13.6906898021698,3.58,6.21,-9.95,12.26
13.693494081497192,9.73,5.35,-11.26,15.81
13.69621205329895,12.81,5.28,-12.59,18.72
13.69898009300232,10.86,8.05,-16.9,21.64
13.701725959777832,10.78,9.81,-16.2,21.79
13.704832792282104,13.16,6.37,-9.78,17.59
13.70724892616272,13.42,2.1,-1.79,13.7
13.723822832107544,8.15,-0.64,0.76,8.21
13.793646097183228,0.35,-3.73,2.02,4.25
13.796313047409058,-6.33,-5.78,4.31,9.59
13.7982017993927,-10.88,-4.98,5.12,13.01
13.80096697807312,-12.92,-1.92,6.07,14.4
13.804073095321655,-11.78,0.93,6.09,13.29
13.805961847305298,-8.87,2.14,4.33,10.09
13.840161085128784,-6.33,2.78,1.97,7.18
13.842495918273926,-4.04,2.67,0.72,4.89
13.845469951629639,-2.15,1.75,0.54,2.82
13.848381996154785,-1.99,0.25,0.58,2.08
13.919898986816406,-3.27,-1.0,1.07,3.58
13.92252802848816,-3.93,-1.4,1.31,4.37
13.924418926239014,-2.99,-0.78,0.16,3.09
13.941673040390015,-0.49,0.41,1.23,1.38
13.94384503364563,0.77,1.58,2.87,3.36
13.946692943572998,-0.64,1.78,2.15,2.86
13.949497938156128,-2.38,1.17,1.14,2.88
13.952297925949097,-2.04,0.51,0.36,2.13
13.955038785934448,-1.55,-0.4,0.03,1.6
13.956989049911499,-2.07,-1.84,0.39,2.79
14.040895938873291,-0.56,-2.1,1.07,2.42
14.043176889419556,2.42,-0.31,1.11,2.68
14.045109033584595,3.85,1.81,1.64,4.55
14.047766923904419,1.8,1.96,0.78,2.77
14.050534009933472,-2.72,-1.52,0.08,3.11
14.053997993469238,-5.5,-8.69,-1.05,10.33
14.055886030197144,-7.61,-19.32,-0.83,20.78
14.058407068252563,-6.75,-27.2,1.04,28.04
14.060974836349487,-1.06,-23.11,1.77,23.2
14.063842058181763,1.84,-16.24,-0.08,16.34
14.136555910110474,-1.02,-16.69,-0.17,16.72
14.139244794845581,-3.58,-18.3,1.54,18.71
14.141146898269653,-1.84,-13.61,1.19,13.78
14.143768072128296,-0.33,-7.0,-1.65,7.19
14.146533966064453,-0.9,-2.89,-4.21,5.18
14.149289846420288,-2.71,0.86,-4.58,5.39
14.152312994003296,-6.58,3.8,-3.58,8.39
14.155021905899048,-11.49,5.79,-1.0,12.9
14.157063007354736,-14.55,9.12,1.7,17.25
14.172894954681396,-13.95,14.67,0.75,20.25
14.174899816513062,-9.6,21.19,-2.67,23.41
14.249170064926147,-5.42,24.07,-3.77,24.95
14.251842021942139,-0.54,18.41,-5.15,19.12
14.253719091415405,0.98,12.31,-3.09,12.72
14.255669832229614,-0.52,9.98,0.2,9.99
14.272948026657104,-2.22,8.74,0.44,9.02
14.274975061416626,-3.7,8.11,-0.78,8.94
14.278784036636353,-3.9,7.83,-1.92,8.95
14.281623125076294,-2.61,7.57,-1.45,8.13
14.28450083732605,-0.11,7.33,0.08,7.33
14.287545919418335,2.32,7.22,1.45,7.72
14.36023998260498,3.95,7.25,2.01,8.49
14.362833023071289,4.82,6.71,1.02,8.32
14.364742040634155,4.83,5.41,-0.74,7.29
14.367486000061035,4.9,2.9,-1.93,6.01
14.370941877365112,5.74,-0.52,-2.0,6.1
14.37283992767334,6.88,-4.56,-1.58,8.4
14.375395059585571,8.39,-8.4,-1.83,12.01
14.378187894821167,9.27,-8.73,-2.41,12.95
14.380949974060059,8.69,-4.93,-3.2,10.49
14.383780002593994,7.61,-0.68,-4.48,8.85
14.457966089248657,6.37,1.58,-3.87,7.61
14.46006178855896,6.17,0.83,-0.32,6.23
14.462430953979492,5.55,-0.98,1.23,5.76
14.465250015258789,3.32,-0.57,1.84,3.83
14.468042135238647,1.4,0.58,2.68,3.07
14.471102952957153,-0.15,0.39,2.31,2.34
14.473049879074097,-1.18,-0.38,1.91,2.27
14.490290880203247,-1.68,-1.35,1.44,2.59
14.492328882217407,-1.3,-1.71,0.51,2.2
14.495208978652954,0.89,-1.11,-1.47,2.04
14.57009482383728,1.86,-0.45,-5.61,5.92
14.572678804397583,1.23,-2.25,-3.98,4.73
14.574535131454468,-2.99,-7.47,-1.95,8.27
14.577223062515259,-11.43,-11.42,8.12,18.08
14.580127954483032,-14.03,-7.55,13.17,20.67
14.582617998123169,-9.81,-4.2,-12.43,16.38
14.585493803024292,-4.35,-8.66,3.76,10.39
14.58824610710144,3.46,-12.9,8.42,15.78
14.59040904045105,7.29,-13.67,9.0,17.91
14.60666799545288,6.71,-8.9,12.97,17.1
14.68146800994873,5.61,-2.03,3.55,6.94
14.684076070785522,2.13,0.99,-2.72,3.59
14.686042070388794,-0.27,-0.1,-8.2,8.2
14.68796706199646,0.69,-1.51,-10.05,10.18
14.690486907958984,5.16,-1.17,-7.56,9.22
14.693274974822998,9.24,-0.01,-3.65,9.93
14.695864915847778,9.6,0.78,-2.56,9.96
14.698538064956665,8.39,0.94,-2.04,8.68
14.701388120651245,6.65,1.01,-1.04,6.8
14.704533815383911,3.42,1.32,-1.14,3.83
14.780298948287964,-0.59,1.26,-0.55,1.49
14.782886981964111,-3.45,0.97,0.39,3.6
14.7848539352417,-4.45,1.15,0.04,4.59
14.788182020187378,-4.47,1.54,0.62,4.76
14.790140867233276,-4.76,1.98,0.97,5.24
14.806895971298218,-5.28,1.96,0.82,5.69
14.808934926986694,-5.75,1.53,0.8,6.0
14.811681985855103,-5.26,0.98,0.65,5.38
14.8143789768219,-3.91,0.26,0.76,3.99
14.817178964614868,-2.5,-0.91,1.76,3.18
14.894464015960693,-1.92,-2.45,2.03,3.71
14.896537065505981,-2.92,-3.62,2.32,5.19
14.898750066757202,-4.67,-3.5,2.95,6.53
14.90162205696106,-5.56,-1.95,2.02,6.22
14.904675006866455,-4.37,0.24,1.32,4.57
14.90667200088501,-1.54,1.95,1.29,2.79
14.923934936523438,0.61,2.47,0.96,2.71
14.92595100402832,0.97,1.54,0.61,1.91
14.928675889968872,-0.53,-0.64,-0.18,0.85
14.931519985198975,-4.41,-4.13,-0.3,6.04
15.009730100631714,-7.31,-6.53,0.06,9.8
15.012295007705688,-2.41,-4.28,0.4,4.92
15.014168977737427,4.21,0.7,-1.04,4.39
15.01706600189209,6.77,4.0,-0.49,7.87
15.01989483833313,3.87,4.59,-1.38,6.16
15.021752119064331,-1.01,2.05,-3.53,4.2
15.024648904800415,-4.66,-5.76,-3.91,8.37
15.027426958084106,-8.18,-24.04,-2.32,25.49
15.029961824417114,-11.68,-41.46,0.31,43.07
15.032520055770874,-10.88,-33.68,1.77,35.43
15.035370111465454,-10.6,-24.25,-0.43,26.46
15.114234924316406,-12.56,-16.8,1.92,21.06
15.116361856460571,-11.91,-12.67,3.98,17.83
15.118719816207886,-9.84,-9.56,1.57,13.8
15.121611833572388,-9.5,-6.66,-2.5,11.86
15.123708009719849,-11.96,-3.68,-3.78,13.07
15.141340970993042,-14.54,-1.16,-3.95,15.11
15.143496990203857,-16.77,1.85,-6.39,18.04
15.146353006362915,-17.73,4.86,-12.74,22.36
15.14888596534729,-16.95,7.51,-20.01,27.27
15.151749849319458,-11.76,6.56,-22.19,25.95
15.231513977050781,-4.15,2.84,-19.88,20.5
15.233617067337036,3.81,-1.19,-14.78,15.3
15.235934972763062,10.52,-5.42,-7.16,13.83
15.238691091537476,12.81,-7.33,-5.88,15.88
15.240752935409546,8.76,-4.62,-11.51,15.18
15.2569899559021,3.87,0.09,-16.29,16.74
15.259001016616821,0.39,4.47,-15.65,16.28
15.262841939926147,-2.55,7.64,-10.33,13.09
15.265619993209839,-5.17,8.37,-5.26,11.15
15.268460035324097,-7.59,6.96,-2.87,10.69
15.347851037979126,-8.63,4.57,-2.45,10.06
15.350023984909058,-7.91,2.49,-3.14,8.86
15.352385997772217,-5.93,0.26,-5.59,8.15
15.355182886123657,-3.5,-2.78,-8.84,9.9
15.357578992843628,-1.39,-7.27,-10.24,12.63
15.374499082565308,1.23,-10.22,-11.92,15.74
15.376521825790405,3.41,-8.31,-11.84,14.86
15.379289865493774,4.84,-4.2,-11.34,13.02
15.382088899612427,5.02,-0.48,-12.23,13.22
15.38496994972229,5.05,1.35,-13.13,14.13
15.46532392501831,5.39,2.13,-12.11,13.42
15.467396974563599,5.99,1.51,-9.5,11.33
15.469757795333862,5.77,0.0,-8.01,9.87
15.471699953079224,4.24,-1.57,-7.27,8.56
15.475046873092651,2.51,-2.52,-6.78,7.65
15.477824926376343,2.49,-2.94,-6.67,7.7
15.480593919754028,3.38,-3.28,-7.0,8.43
15.483352899551392,4.78,-2.47,-6.38,8.34
15.486314058303833,6.41,-0.84,-5.35,8.39
15.488709926605225,5.79,0.0,-6.72,8.87
15.56846308708191,4.4,-0.34,-6.23,7.63
15.571123838424683,4.91,-0.59,-4.39,6.61
15.573118925094604,6.71,-1.03,-3.99,7.87
15.576807022094727,7.08,-1.31,-5.17,8.86
15.579603910446167,5.73,-0.71,-6.84,8.95
15.58247685432434,5.85,0.25,-7.49,9.5
15.585346937179565,7.3,1.23,-6.91,10.12
15.588257074356079,8.98,1.81,-6.32,11.12
15.590297937393188,10.5,1.44,-6.47,12.41
15.606355905532837,8.53,-1.02,-3.89,9.43
15.68639588356018,-2.39,-8.16,16.21,18.3
15.68900179862976,-6.55,-19.16,28.03,34.57
15.690990924835205,2.09,-19.84,13.83,24.27
15.693645000457764,6.51,-7.96,8.3,13.21
15.696412801742554,6.65,0.1,-3.81,7.66
15.699122905731201,5.82,3.78,-10.42,12.51
15.701894044876099,2.18,4.94,-8.37,9.96
15.70506501197815,-1.26,5.42,-7.59,9.41
15.70694613456726,-1.15,5.63,-8.6,10.34
15.723800897598267,0.86,5.38,-12.0,13.17
15.804650068283081,5.09,2.04,-14.95,15.92
15.807271957397461,10.57,-2.01,-11.4,15.67
15.80921196937561,13.75,-4.1,-4.44,15.01
15.811945915222168,10.74,-3.33,0.29,11.24
15.814740896224976,3.33,-1.28,3.73,5.16
15.81752896308899,-3.28,-0.45,5.12,6.09
15.820136785507202,-6.83,-0.52,4.23,8.05
15.822007894515991,-5.89,-0.92,3.21,6.77
15.82503890991211,-2.18,-1.27,2.25,3.38
15.827804803848267,0.67,-1.03,0.56,1.35
15.910376787185669,2.1,-0.21,-1.84,2.79
15.912937879562378,2.7,0.84,-2.77,3.95
15.91483187675476,2.99,1.75,-2.28,4.14
15.917494058609009,3.0,2.09,-2.32,4.33
15.920107126235962,1.88,1.62,-1.97,3.16
15.921980142593384,0.85,0.83,-0.66,1.35
15.925036907196045,-0.48,0.1,0.15,0.51
15.927801847457886,-1.88,-0.3,0.61,1.99
15.930631875991821,-2.83,-0.31,0.84,2.96
15.933421850204468,-3.03,-0.05,0.82,3.13
15.936131000518799,-2.3,0.02,0.33,2.32
16.019145011901855,-1.23,-0.02,-0.36,1.28
16.021431922912598,-0.11,-0.14,-0.74,0.76
16.02342391014099,0.8,-0.16,-0.67,1.05
16.02601194381714,1.44,-0.1,-1.0,1.75
16.028823137283325,1.31,-0.19,-1.39,1.91
16.031466960906982,0.61,-0.32,-1.24,1.41
16.034233808517456,-0.42,-0.25,-1.32,1.4
16.036880016326904,-1.38,-0.12,-1.62,2.13
16.038753986358643,-2.2,-0.09,-1.07,2.44
16.041821002960205,-2.87,-0.08,0.15,2.87
16.12496781349182,-3.72,-0.28,0.42,3.75
16.12756896018982,-4.34,-0.65,-0.05,4.38
16.129421949386597,-3.74,-0.75,-0.07,3.81
16.13222908973694,-2.11,-0.55,0.45,2.22
16.134923934936523,-0.81,-0.18,1.21,1.46
16.13837504386902,-0.3,0.51,1.26,1.39
16.14022397994995,-0.35,0.83,-0.08,0.9
16.142977952957153,-0.56,0.2,-0.64,0.87
16.14553999900818,-0.79,-0.4,-0.95,1.29
16.14834499359131,-1.87,-0.6,-1.37,2.39
16.23192596435547,-3.02,-0.56,-1.34,3.35
16.234461069107056,-2.79,-0.51,-1.27,3.1
16.23632311820984,-1.35,-0.53,-0.83,1.67
16.23915982246399,0.35,-0.78,0.15,0.86
16.241255044937134,0.99,-1.09,0.23,1.49
16.25808882713318,0.61,-1.38,0.17,1.51
16.260133028030396,0.18,-1.81,0.09,1.82
16.262815952301025,0.49,-2.51,0.18,2.56
16.26545786857605,0.36,-3.31,0.96,3.46
16.268285036087036,-1.45,-3.95,1.81,4.58
16.3523690700531,-2.27,-4.33,1.22,5.03
16.35466504096985,-2.46,-4.77,0.51,5.39
16.356688022613525,-2.75,-6.04,0.41,6.64
16.360430002212524,-4.06,-7.95,-0.67,8.95
16.36323094367981,-6.67,-11.11,-0.03,12.95
16.36595392227173,-10.69,-13.82,0.58,17.48
16.368748903274536,-15.96,-13.87,-0.58,21.15
16.372033834457397,-17.97,-12.79,-0.42,22.06
16.37419581413269,-17.06,-11.99,0.46,20.85
16.39011788368225,-16.81,-11.45,0.91,20.35
16.47384285926819,-16.64,-10.43,-0.11,19.63
16.47652292251587,-14.63,-8.66,-1.59,17.07
16.478452920913696,-12.29,-6.98,-1.65,14.22
16.48106098175049,-9.81,-6.98,-1.68,12.15
16.48371911048889,-7.34,-7.56,-2.61,10.85
16.486552000045776,-5.4,-7.57,-3.4,9.9
16.489271879196167,-3.31,-6.43,-3.46,8.01
16.49146580696106,-0.56,-4.53,-3.56,5.78
16.507499933242798,1.93,-2.47,-7.43,8.06
16.509509801864624,2.02,-0.59,-11.26,11.45
16.59468388557434,0.63,0.72,-9.85,9.89
16.5972797870636,-0.24,1.8,-6.52,6.76
16.599151849746704,-0.3,3.01,-4.4,5.33
16.602977991104126,-0.31,4.13,-3.58,5.47
16.605716943740845,-0.95,4.66,-3.71,6.03
16.6079580783844,-1.78,4.76,-4.59,6.84
16.62569785118103,-1.93,4.61,-5.34,7.31
16.62770700454712,-1.39,4.59,-5.36,7.19
16.630640983581543,-0.24,4.98,-5.35,7.31
16.633497953414917,0.85,5.89,-5.68,8.22
16.718801021575928,1.54,7.13,-5.73,9.27
16.72165298461914,2.07,8.25,-5.66,10.21
16.723667860031128,2.33,9.23,-6.31,11.42
16.727351903915405,1.98,10.48,-5.9,12.18
16.729963064193726,1.75,11.76,-3.62,12.42
16.732714891433716,2.3,12.39,-1.96,12.75
16.735530138015747,3.45,11.8,-2.53,12.55
16.738784074783325,4.92,10.12,-4.68,12.18
16.740911960601807,6.45,8.12,-6.59,12.28
16.75683283805847,6.92,6.73,-6.66,11.72
16.84083390235901,7.13,5.42,-6.18,10.88
16.843486070632935,7.4,3.9,-6.68,10.7
16.845391035079956,8.1,2.19,-7.84,11.48
16.848135948181152,9.27,0.61,-8.57,12.63
16.85089898109436,10.63,-0.31,-8.22,13.44
16.853534936904907,11.65,-0.22,-6.69,13.43
16.856229066848755,11.21,1.42,-5.08,12.38
16.8581600189209,10.27,3.63,-4.08,11.63
16.875303030014038,9.16,5.52,-3.6,11.28
16.877302885055542,7.72,6.37,-2.81,10.39
16.881015062332153,6.57,5.45,-1.68,8.69
16.965845823287964,5.62,3.72,-0.93,6.8
16.96846294403076,4.99,1.75,-0.61,5.32
16.97032904624939,5.13,-0.11,0.24,5.13
16.97224998474121,5.24,-0.91,1.24,5.46
16.975701093673706,4.8,-1.2,1.26,5.1
16.978457927703857,3.35,-0.97,1.64,3.85
16.981223821640015,1.72,-1.05,1.65,2.6
16.98399591445923,0.61,-0.93,1.94,2.23
16.986743927001953,-0.57,-0.28,2.33,2.41
16.989264965057373,-0.85,0.01,2.86,2.98
17.074299097061157,0.26,0.03,2.51,2.52
17.076815843582153,0.38,-0.38,1.7,1.78
17.078739881515503,0.37,-0.04,0.39,0.53
17.081473112106323,1.03,-0.55,-0.82,1.42
17.08411693572998,1.45,-1.34,-1.65,2.57
17.086969137191772,1.01,-1.69,-1.89,2.72
17.08963894844055,0.82,-1.3,-0.77,1.71
17.0916268825531,4.03,-1.59,-1.48,4.57
17.10889196395874,4.68,-0.49,-4.86,6.76
17.11095690727234,0.57,-0.75,-15.77,15.79
17.1975679397583,-9.58,-5.11,-4.89,11.9
17.20021891593933,-16.39,-11.64,3.02,20.32
17.20212483406067,-21.9,-23.36,-4.65,32.35
17.20452904701233,-24.29,-40.52,13.12,49.03
17.20644497871399,2.96,-25.64,35.88,44.19
17.20926594734192,15.14,-4.76,17.18,23.38
17.21199679374695,4.16,5.24,-13.11,14.71
17.214752912521362,-5.21,7.26,-5.8,10.65
17.21749496459961,-2.44,8.56,-9.68,13.15
17.220123052597046,2.84,13.29,-21.93,25.79
17.307092905044556,8.98,14.82,-14.97,22.89
17.309351921081543,15.26,8.31,-9.03,19.58
17.311697006225586,16.24,1.26,-5.85,17.3
17.314254999160767,13.92,-3.3,-0.87,14.33
17.317019939422607,9.13,-5.63,2.5,11.01
17.319839000701904,3.29,-5.93,3.72,7.73
17.32254695892334,-2.56,-4.69,4.59,7.04
17.32445788383484,-8.08,-2.64,5.52,10.13
17.341150999069214,-11.37,-0.75,5.37,12.59
17.34319806098938,-11.28,0.15,4.23,12.04
17.43148684501648,-9.69,0.99,3.38,10.31
17.434059858322144,-7.8,1.71,2.03,8.23
17.43594193458557,-6.19,2.1,0.63,6.56
17.439392805099487,-5.13,2.03,-0.24,5.52
17.441409826278687,-4.08,1.12,-0.18,4.23
17.457492113113403,-2.9,0.05,0.72,2.98
17.45947003364563,-2.06,-0.53,0.96,2.33
17.463171005249023,-1.01,-0.05,-0.17,1.02
17.465973138809204,0.77,1.43,-0.98,1.89
17.468751907348633,2.31,2.54,0.31,3.44
17.557613134384155,0.9,2.57,1.55,3.13
17.55963897705078,-3.18,1.5,2.08,4.08
17.561911821365356,-5.06,0.65,0.92,5.18
17.56479287147522,-2.95,1.03,-0.73,3.2
17.567559957504272,1.41,2.24,-0.88,2.78
17.570392847061157,4.45,3.15,-0.19,5.45
17.573002099990845,3.0,2.81,0.45,4.13
17.574939966201782,-1.06,1.2,-0.54,1.68
17.59110713005066,-3.5,-0.94,-1.81,4.05
17.593161821365356,-4.33,-3.32,-1.16,5.57
17.68284583091736,-2.88,-5.4,-0.44,6.13
17.685423135757446,-0.43,-6.37,-0.89,6.44
17.68731188774109,0.28,-5.9,-0.27,5.91
17.68922209739685,0.13,-4.99,-1.88,5.33
17.69263195991516,0.59,-5.57,-2.57,6.16
17.6954128742218,0.45,-9.6,-1.77,9.77
17.698149919509888,-1.67,-18.15,-2.07,18.34
17.700902938842773,-3.95,-28.74,-1.43,29.04
17.703444004058838,-2.81,-32.94,-0.21,33.06
17.70599913597107,-0.21,-25.9,2.22,25.99
17.795943021774292,-2.06,-13.39,0.97,13.58
17.798563957214355,-3.82,-5.71,-0.33,6.87
17.80047106742859,-4.11,-0.93,-0.84,4.29
17.803008794784546,-5.83,3.11,0.95,6.67
17.80603814125061,-12.56,7.41,5.76,15.67
17.808006048202515,-16.77,12.56,8.13,22.47
17.824912786483765,-17.51,25.25,3.64,30.94
17.826945066452026,-16.23,38.53,-1.71,41.84
17.830651998519897,-7.82,30.14,-6.4,31.78
17.833472967147827,-1.36,16.64,-8.6,18.78
17.836278915405273,0.39,10.55,-4.25,11.38
17.92794394493103,1.26,6.84,-1.71,7.16
17.930094003677368,2.07,4.69,-2.63,5.76
17.932326078414917,4.5,4.0,-3.74,7.08
17.935067892074585,7.69,3.79,-2.34,8.88
17.93778109550476,8.74,4.32,-1.0,9.8
17.939589023590088,7.69,4.98,-1.9,9.35
17.942711114883423,6.56,5.26,-2.55,8.78
17.945467948913574,6.04,4.65,-1.4,7.75
17.948150873184204,5.93,2.82,0.58,6.59
17.950891971588135,5.28,-0.08,1.69,5.54
18.043754816055298,4.1,-3.6,1.98,5.8
18.046329021453857,3.38,-6.31,2.23,7.49
18.04816699028015,3.22,-6.41,1.49,7.32
18.061242818832397,3.22,-3.83,-0.26,5.01
18.06319308280945,4.9,-1.43,-0.66,5.14
18.06563401222229,6.26,-0.09,-0.24,6.26
18.06836485862732,7.1,0.67,-0.31,7.13
18.07110095024109,6.79,2.44,0.21,7.21
18.072917938232422,5.67,4.42,1.17,7.28
18.07609796524048,4.43,4.14,1.6,6.27
18.16914701461792,2.23,3.26,0.89,4.04
18.17225694656372,-0.45,0.82,0.26,0.97
18.174227952957153,-3.57,-2.29,0.94,4.34
18.176867961883545,-4.0,-3.83,1.46,5.72
18.179687023162842,-2.84,-3.43,2.05,4.9
18.182493925094604,-1.3,-1.66,1.41,2.53
18.185385942459106,-0.45,0.48,0.21,0.69
18.187938928604126,1.43,1.56,1.25,2.45
18.18980097770691,6.07,1.36,2.42,6.67
18.192754983901978,9.37,1.17,-16.01,18.58
18.286659002304077,10.76,-2.39,-17.69,20.84
18.289238929748535,0.45,-9.94,8.21,12.9
18.29112982749939,-14.02,-15.1,13.91,24.86
18.293553113937378,-11.06,-11.79,0.11,16.16
18.29616904258728,-14.72,-6.13,-8.88,18.25
18.298964977264404,-20.74,-12.56,-11.56,26.86
18.301504850387573,-11.22,-21.26,2.43,24.16
18.30423593521118,2.57,-17.52,24.53,30.25
18.30669593811035,6.26,-4.96,12.22,14.59
18.308520078659058,5.04,1.74,-3.88,6.59
18.416456937789917,5.9,2.62,-6.65,9.26
18.41867709159851,8.28,2.74,-13.29,15.89
18.42062783241272,11.41,2.7,-12.7,17.28
18.42347502708435,11.79,4.05,-8.83,15.27
18.425702810287476,10.64,4.68,-7.59,13.88
18.44148302078247,9.2,3.48,-3.48,10.43
18.44349193572998,6.81,1.97,-0.2,7.09
18.44637894630432,2.92,1.22,1.52,3.51
18.449002027511597,-1.06,0.24,3.2,3.37
18.451700925827026,-4.71,-0.11,4.79,6.71
18.546706914901733,-7.71,-0.19,5.17,9.28
18.549283981323242,-9.19,-0.35,3.82,9.95
18.551172018051147,-9.02,-0.28,2.24,9.29
18.55383610725403,-7.19,-0.45,2.07,7.49
18.556668043136597,-4.62,-1.05,2.04,5.15
18.559023141860962,-3.41,-1.38,2.14,4.25
18.574835062026978,-3.4,-0.78,2.46,4.26
18.57681679725647,-4.21,-0.13,2.89,5.1
18.580547094345093,-5.48,0.77,2.7,6.15
18.583249807357788,-5.34,1.6,1.28,5.71
18.678416967391968,-3.47,2.32,0.02,4.17
18.68117880821228,-1.94,2.58,1.29,3.47
18.68304705619812,-1.33,2.37,0.54,2.77
18.68588089942932,-0.89,1.87,-1.69,2.67
18.6885929107666,-0.8,1.19,-0.81,1.64
18.690428972244263,-1.31,-0.03,0.18,1.32
18.693120002746582,-0.2,-0.01,-1.27,1.28
18.69587206840515,2.67,2.48,-1.9,4.1
18.69864010810852,3.17,5.01,-0.89,5.99
18.701420068740845,0.98,5.44,-0.61,5.56
18.79808497428894,-2.07,3.91,-1.8,4.77
18.8006808757782,-4.43,0.36,-0.78,4.51
18.802525997161865,-5.94,-5.32,0.39,7.98
18.80740714073181,-5.1,-11.42,0.75,12.52
18.809521913528442,-0.13,-13.39,0.1,13.39
18.812288999557495,4.78,-11.55,0.07,12.5
18.815080881118774,4.31,-10.97,1.37,11.86
18.817832946777344,-0.52,-12.85,1.13,12.91
18.820553064346313,-0.65,-14.82,1.63,14.92
18.823376893997192,0.98,-16.75,2.12,16.91
18.826136827468872,-1.1,-19.94,1.68,20.04
18.923775911331177,-4.67,-22.25,0.59,22.74
18.926394939422607,-6.02,-20.4,2.54,21.42
18.928255796432495,-4.99,-12.8,2.12,13.9
18.930999994277954,-3.78,-6.11,-0.54,7.2
18.93380093574524,-4.17,-1.95,-3.16,5.58
18.936597108840942,-6.32,1.6,-3.6,7.44
18.93988585472107,-10.49,4.73,-2.36,11.74
18.941807985305786,-15.81,9.05,-0.74,18.23
18.959015130996704,-17.75,17.08,-0.85,24.64
18.96104884147644,-13.77,30.29,-4.42,33.56
19.060760021209717,-5.28,30.99,-4.78,31.79
19.06340193748474,3.49,19.21,-2.05,19.63
19.065274000167847,4.73,11.44,-0.15,12.38
19.0681209564209,1.64,7.85,-0.34,8.02
19.07094407081604,-0.63,6.32,-1.94,6.64
19.07364010810852,-1.96,6.69,-2.7,7.47
19.075597047805786,-2.4,8.02,-2.55,8.75
19.09138798713684,-1.91,8.94,-2.42,9.45
19.093387842178345,-1.17,9.27,-2.71,9.72
19.096207857131958,-0.25,8.82,-2.68,9.22
19.196521043777466,1.18,7.7,-1.17,7.87
19.199310064315796,3.59,6.69,0.99,7.65
19.201146841049194,6.5,5.1,1.41,8.38
19.20388388633728,8.94,2.5,-0.37,9.29
19.2065749168396,10.02,-1.24,-2.58,10.42
19.208544969558716,9.9,-5.86,-2.43,11.75
19.225634813308716,7.47,-8.3,0.76,11.19
19.227706909179688,3.84,-6.48,2.85,8.05
19.230525016784668,1.32,-2.58,1.76,3.39
19.233242988586426,0.85,-0.55,0.45,1.1
19.33346700668335,1.99,-0.25,0.0,2.0
19.33631205558777,3.66,-0.75,-0.01,3.73
19.338207006454468,5.03,-1.55,-0.38,5.27
19.34006381034851,6.27,-1.8,0.4,6.53
19.343671083450317,5.0,-0.44,1.79,5.32
19.346333980560303,3.08,0.21,1.63,3.49
19.34909987449646,0.58,1.32,1.8,2.3
19.35182213783264,-0.58,2.04,0.53,2.18
19.354607820510864,-0.94,1.48,-0.93,1.98
19.357218980789185,-1.17,0.48,0.41,1.32
19.457731008529663,-0.56,0.27,3.73,3.78
19.460307836532593,1.84,-0.65,3.97,4.42
19.46222496032715,1.67,-2.71,-17.19,17.48
19.464993000030518,2.67,-9.19,-9.0,13.13
19.467700004577637,-5.06,-12.86,10.97,17.64
19.47050404548645,-13.52,-9.6,6.8,17.92
19.473440885543823,-13.33,-4.55,-13.27,19.35
19.475435972213745,-14.42,-4.45,-9.08,17.61
19.492641925811768,-12.35,-14.14,-3.75,19.14
19.494692087173462,-1.16,-21.74,11.13,24.45
19.59645700454712,7.14,-14.2,25.97,30.44
19.59900403022766,8.05,-2.8,8.3,11.89
19.600824117660522,6.02,2.18,-5.49,8.43
19.60358691215515,5.3,3.21,-9.82,11.61
19.60698103904724,7.09,3.29,-13.71,15.78
19.609101057052612,10.5,3.73,-10.28,15.16
19.625581979751587,12.49,3.9,-5.48,14.18
19.627588033676147,11.22,3.09,-4.49,12.47
19.630228996276855,7.33,1.98,-2.56,8.01
19.633009910583496,3.15,1.09,-0.81,3.43
19.736464977264404,-0.76,-0.18,1.42,1.62
19.739691019058228,-3.82,-1.36,2.15,4.58
19.741655111312866,-5.61,-1.16,1.98,6.06
19.74530601501465,-6.17,0.37,2.69,6.74
19.748109102249146,-5.93,1.82,2.32,6.62
19.750885009765625,-5.77,2.33,1.58,6.42
19.75362491607666,-5.3,1.91,1.71,5.88
19.756845951080322,-4.56,0.87,1.48,4.87
19.758940935134888,-3.89,-0.44,1.82,4.31
19.774281978607178,-3.17,-1.43,2.59,4.33
19.877426862716675,-3.2,-1.68,2.23,4.24
19.879943132400513,-4.22,-1.23,2.04,4.84
19.881858110427856,-4.46,-0.18,1.06,4.58
19.884573936462402,-3.17,1.08,-0.45,3.37
19.88740086555481,-1.56,1.83,-0.1,2.4
19.890301942825317,-0.55,1.3,-0.06,1.41
19.8922119140625,-1.23,0.02,-0.29,1.26
19.90944790840149,-2.87,-1.33,0.37,3.18
19.91147494316101,-2.43,-1.48,0.27,2.85
19.91435408592224,0.01,0.21,0.6,0.63
19.917155981063843,2.47,2.47,-0.32,3.5
20.02208685874939,2.12,3.43,-0.68,4.08
20.025146961212158,-1.74,1.57,-0.64,2.42
20.02704882621765,-6.77,-3.92,-1.71,8.0
20.029712915420532,-12.06,-14.86,-0.96,19.16
20.0325710773468,-15.16,-27.48,1.03,31.4
20.035334825515747,-7.83,-25.39,3.59,26.81
20.038203954696655,1.46,-13.59,-0.12,13.66
20.040848970413208,2.66,-7.96,-3.82,9.22
20.042876958847046,0.39,-7.57,-2.0,7.83
20.059432983398438,-2.02,-11.24,-1.84,11.56
20.1643807888031,-5.07,-15.63,-0.38,16.43
20.16693091392517,-6.06,-15.9,2.02,17.13
20.16883683204651,-6.19,-11.82,0.75,13.36
20.17170000076294,-7.69,-6.57,-1.16,10.18
20.17436695098877,-9.64,-2.79,-0.8,10.06
20.176414012908936,-11.64,0.31,0.14,11.64
20.1923348903656,-13.93,4.5,-0.6,14.65
20.194309949874878,-15.61,10.68,-4.73,19.49
20.198055028915405,-17.73,20.82,-13.12,30.33
20.200613975524902,-16.33,25.94,-17.03,35.06
20.307480096817017,-7.88,17.02,-15.57,24.37
20.310086965560913,0.24,10.06,-9.14,13.59
20.311914920806885,5.17,5.44,0.28,7.51
20.31460213661194,5.23,1.32,2.57,5.97
20.317353010177612,2.66,-1.53,-1.38,3.36
20.320084810256958,0.66,-2.38,-3.67,4.42
20.32275080680847,0.4,-1.1,-3.95,4.11
20.324587106704712,1.03,0.79,-3.55,3.77
20.32740807533264,1.67,2.69,-4.22,5.27
20.32996892929077,1.75,4.72,-4.53,6.77
20.43717885017395,1.42,6.5,-3.57,7.55
20.440184831619263,0.59,7.45,-1.68,7.65
20.442102909088135,-0.93,8.07,0.31,8.12
20.444671869277954,-2.4,6.69,2.42,7.5
20.447462797164917,-2.8,4.61,3.78,6.58
20.450259923934937,-2.03,2.13,3.45,4.53
20.453028917312622,-0.27,-0.78,1.4,1.62
20.45560908317566,1.51,-4.21,-0.35,4.48
20.457484006881714,3.49,-7.88,-1.23,8.7
20.460412979125977,4.57,-9.1,-1.38,10.27
20.568299055099487,3.88,-6.38,-1.4,7.59
20.57089591026306,3.02,-2.9,-1.63,4.49
20.57276701927185,2.11,-0.62,-1.77,2.82
20.574723958969116,2.03,-0.12,-1.27,2.39
20.59337306022644,2.19,-0.85,-2.46,3.4
20.595391035079956,1.77,-1.58,-3.41,4.15
20.5983829498291,2.98,-1.35,-1.83,3.74
20.60112500190735,4.04,-0.27,-1.16,4.21
20.60387682914734,2.55,1.09,-1.83,3.32
20.607128858566284,-1.17,1.98,-2.7,3.54
20.71470284461975,-3.99,2.0,-2.54,5.13
20.717559099197388,-3.77,1.23,-0.28,3.97
20.71948504447937,-2.35,0.68,1.95,3.12
20.72207808494568,-1.5,0.14,1.65,2.23
20.724805116653442,-0.79,-0.2,-0.42,0.91
20.726828813552856,0.75,0.25,-2.88,2.98
20.74304986000061,4.27,0.82,-6.22,7.58
20.74503207206726,8.63,2.08,-8.52,12.3
20.747946977615356,11.61,3.96,-6.99,14.11
20.750674962997437,3.52,1.66,-2.85,4.82
20.85975480079651,-19.3,-20.99,14.4,31.94
20.862315893173218,-4.53,-55.62,12.44,57.17
20.864185094833374,16.51,-34.63,24.32,45.42
20.866652011871338,4.53,-5.78,-19.28,20.63
20.869200944900513,-5.86,0.75,-28.1,28.71
20.871912956237793,-0.19,1.83,-6.09,6.36
20.874584913253784,4.12,14.08,-5.81,15.77
20.87685990333557,8.45,29.46,-13.13,33.34
20.893433809280396,13.4,23.74,-13.46,30.4
20.895437002182007,15.6,9.18,-15.07,23.55
21.005593061447144,16.37,-1.97,-12.21,20.51
21.00875997543335,17.84,-12.48,-5.87,22.54
21.010719060897827,16.75,-18.15,0.54,24.7
21.014410972595215,6.41,-13.23,0.52,14.71
21.01715898513794,-5.37,-5.79,-3.11,8.48
21.01987910270691,-13.4,0.62,-0.79,13.43
21.022560834884644,-13.88,4.86,3.9,15.21
21.024374961853027,-9.64,5.34,2.72,11.35
21.027459859848022,-3.52,4.76,0.87,5.98
21.03022789955139,1.28,3.46,0.64,3.74
21.032842874526978,4.14,1.16,-0.33,4.31
21.142722845077515,4.64,-1.34,-0.95,4.92
21.145336866378784,2.53,-2.2,-1.59,3.71
21.14717197418213,-0.47,-1.16,-1.46,1.92
21.14994502067566,-3.06,0.85,0.96,3.31
21.152722120285034,-4.93,2.63,1.51,5.78
21.155421018600464,-5.76,3.2,1.46,6.74
21.158035039901733,-5.13,2.87,3.17,6.67
21.160139799118042,-3.41,2.02,2.85,4.88
21.17617893218994,-2.45,0.7,2.25,3.39
21.178191900253296,-1.87,-0.28,2.4,3.05
21.287590980529785,-1.73,-0.83,0.79,2.07
21.290640115737915,-2.1,-1.19,-0.66,2.5
21.292714834213257,-2.58,-1.57,0.08,3.02
21.296397924423218,-3.11,-1.69,-0.54,3.58
21.299137830734253,-3.73,-2.23,-0.89,4.43
21.301953077316284,-3.8,-2.57,-0.27,4.59
21.304775953292847,-4.19,-2.15,0.44,4.72
21.30760407447815,-4.18,-1.51,0.56,4.47
21.309622049331665,-4.88,-1.2,-0.11,5.02
21.325688123703003,-5.71,-1.62,0.17,5.93
21.434268951416016,-6.04,-2.03,-1.1,6.46
21.43689799308777,-5.27,-2.18,-2.12,6.08
21.438870906829834,-3.67,-2.5,-2.04,4.88
21.44081997871399,-2.58,-3.12,-1.09,4.19
21.44371485710144,-2.99,-4.01,-0.67,5.04
21.446388006210327,-4.24,-5.07,0.2,6.61
21.449127912521362,-5.24,-6.36,2.59,8.63
21.451730012893677,-6.75,-7.13,2.84,10.22
21.45455813407898,-8.68,-7.2,3.07,11.68
21.457804918289185,-9.53,-7.07,3.64,12.41
21.566906929016113,-9.64,-7.11,3.09,12.37
21.569777965545654,-10.12,-7.77,2.19,12.94
21.571769952774048,-11.32,-9.62,0.18,14.85
21.57475209236145,-12.76,-13.32,-1.76,18.52
21.57740092277527,-14.59,-17.59,-1.15,22.88
21.59381604194641,-15.61,-17.28,-2.18,23.38
21.595805883407593,-13.14,-12.79,-3.51,18.66
21.59863781929016,-8.52,-9.63,-4.81,13.72
21.60132098197937,-7.13,-9.17,-7.4,13.77
21.604054927825928,-7.81,-9.51,-7.57,14.44
21.713865995407104,-8.19,-8.31,-4.93,12.66
21.71607804298401,-7.21,-6.12,-3.46,10.07
21.718448877334595,-4.98,-3.9,-6.78,9.27
21.721401929855347,-4.25,-1.83,-12.96,13.76
21.724551916122437,-5.59,-0.51,-16.1,17.05
21.72652292251587,-6.45,-0.34,-14.58,15.94
21.74328303337097,-5.07,-0.29,-12.73,13.7
21.745280981063843,-3.05,0.2,-12.38,12.75
21.74808692932129,-1.76,1.13,-12.05,12.23
21.750782012939453,-0.96,2.37,-10.96,11.25
21.86033606529236,-1.63,3.86,-10.81,11.59
21.863088846206665,-3.6,4.75,-11.09,12.59
21.86495614051819,-5.52,4.93,-10.81,13.1
21.867677927017212,-6.67,5.43,-10.85,13.84
21.87045192718506,-7.16,5.71,-10.63,14.03
21.873181104660034,-6.98,5.62,-10.67,13.93
21.87499213218689,-6.96,5.71,-10.6,13.9
21.877806901931763,-6.75,5.65,-10.51,13.7
21.880584001541138,-6.18,5.89,-10.3,13.37
21.883343935012817,-4.78,5.37,-10.17,12.45
21.99357008934021,-2.88,4.91,-10.88,12.27
21.9961678981781,-1.54,5.04,-11.21,12.38
21.998040914535522,-1.35,5.65,-10.57,12.06
22.00073790550232,-1.56,6.36,-9.0,11.13
22.003525018692017,-1.75,6.59,-8.11,10.59
22.006170988082886,-1.13,6.24,-8.66,10.73
22.007991075515747,0.25,5.38,-10.06,11.41
22.011327981948853,1.83,4.27,-10.8,11.75
22.01407504081726,3.34,3.21,-10.03,11.04
22.01687002182007,5.18,2.4,-8.94,10.6
22.125306844711304,6.8,1.85,-8.93,11.37
22.127607107162476,7.76,1.65,-9.78,12.59
22.12943196296692,8.35,1.43,-9.99,13.09
22.132143020629883,8.49,1.28,-9.43,12.75
22.134927988052368,7.85,1.55,-8.51,11.68
22.137563943862915,7.16,1.66,-7.17,10.26
22.14105796813965,6.24,1.44,-6.0,8.77
22.14293599128723,5.66,1.36,-4.79,7.53
22.145648956298828,4.97,1.54,-3.22,6.11
22.148401021957397,4.6,1.98,-1.66,5.27
22.151139974594116,4.57,2.24,-0.38,5.1
22.260753870010376,4.79,1.77,0.36,5.11
22.26341199874878,4.61,1.27,-0.02,4.78
22.265265941619873,4.14,1.14,-0.35,4.3
22.267971992492676,3.83,1.3,-0.49,4.07
22.27065682411194,4.15,1.6,-0.21,4.45
22.273308038711548,5.23,1.8,-0.03,5.53
22.27514100074768,6.3,1.61,-0.39,6.51
22.278262853622437,6.55,1.25,-0.5,6.68
22.281054973602295,5.39,0.99,0.05,5.48
22.28364586830139,4.34,0.2,0.64,4.39
22.3935649394989,3.87,-0.51,1.17,4.07
22.396125078201294,3.06,-0.48,1.88,3.62
22.39798378944397,1.69,0.09,1.99,2.61
22.400648832321167,0.63,0.52,1.35,1.57
22.403427839279175,0.43,0.19,0.45,0.65
22.40622305870056,0.8,-0.88,0.24,1.21
22.408960103988647,1.3,-1.68,0.11,2.12
22.411062955856323,1.41,-2.01,0.15,2.45
22.4271240234375,0.91,-0.96,0.03,1.32
22.429138898849487,0.76,0.67,-0.09,1.01
22.539817094802856,1.22,1.71,-0.25,2.11
22.542500972747803,2.18,1.78,-0.79,2.92
22.54449200630188,3.16,1.39,-1.04,3.6
22.548178911209106,3.89,0.61,-1.26,4.13
22.55095100402832,3.82,0.46,-1.06,3.99
22.553734064102173,5.26,0.36,1.45,5.46
22.556617975234985,10.5,-0.02,2.9,10.89
22.558461904525757,11.05,0.95,-4.93,12.13
22.561617136001587,2.75,0.35,-13.04,13.33
22.564433813095093,-6.76,-3.7,-5.36,9.38
22.674232006072998,-13.44,-7.32,10.3,18.44
22.676708936691284,-18.05,-4.13,-0.74,18.53
22.678582906723022,-30.93,-2.34,-26.02,40.48
22.681002855300903,-44.52,-32.8,-12.73,56.74
22.6837739944458,-8.28,-55.09,50.62,75.27
22.68649411201477,23.34,-20.02,47.21,56.34
22.689270973205566,9.22,2.01,-10.41,14.05
22.69196891784668,-1.8,7.4,-14.19,16.1
22.694105863571167,5.03,12.45,-16.87,21.56
22.710624933242798,11.77,16.66,-22.49,30.36
22.819870948791504,14.26,18.04,-17.73,29.03
22.822608947753906,15.45,11.28,-14.55,24.03
22.824615001678467,16.17,2.64,-6.52,17.63
22.826560020446777,14.85,-2.54,0.81,15.08
22.84378695487976,10.41,-6.03,3.26,12.46
22.845776796340942,3.92,-8.56,4.37,10.37
22.849509954452515,-3.23,-8.77,5.25,10.71
22.85228991508484,-9.22,-6.21,5.85,12.56
22.85507297515869,-12.65,-1.74,4.86,13.66
22.858236074447632,-12.95,1.96,3.2,13.48
22.968143939971924,-10.31,4.16,1.21,11.18
22.970634937286377,-7.47,5.63,-0.4,9.36
22.972739934921265,-4.33,4.79,-1.21,6.56
22.976678133010864,-1.94,2.31,-0.4,3.04
22.979371786117554,-2.26,1.1,0.7,2.6
22.994839906692505,-3.72,0.21,1.98,4.21
22.996830940246582,-5.3,0.25,3.04,6.11
22.999605894088745,-6.54,0.97,3.83,7.64
23.002393007278442,-6.7,1.45,4.39,8.14
23.005162000656128,-5.89,1.46,4.49,7.54
23.11725091934204,-5.18,1.43,3.39,6.35
23.119953870773315,-4.16,1.7,1.68,4.79
23.12182879447937,-3.02,2.1,1.19,3.86
23.125162839889526,-2.65,2.07,1.34,3.61
23.127079010009766,-2.86,1.19,-0.06,3.09
23.129917860031128,-1.02,0.9,-1.49,2.01
23.132632970809937,4.07,1.37,-1.68,4.61
23.135324001312256,7.87,2.34,-0.69,8.23
23.13811707496643,6.09,2.65,-0.43,6.65
23.141547918319702,-0.29,1.21,0.95,1.56
23.253171920776367,-3.76,-0.81,0.0,3.84
23.256099939346313,-2.34,-2.15,0.25,3.18
23.257964849472046,1.0,-2.6,1.05,2.97
23.25996708869934,3.1,-2.41,-1.0,4.05
23.277475118637085,1.78,-2.84,-0.92,3.47
23.279597997665405,-0.05,-4.77,-1.22,4.92
23.282344102859497,0.16,-7.88,-1.77,8.07
23.28508496284485,-1.12,-13.85,-0.36,13.89
23.28788685798645,-4.31,-24.03,0.1,24.41
23.290522813796997,-2.44,-29.94,2.57,30.14
23.292382955551147,3.22,-24.38,1.56,24.64
23.405102968215942,1.26,-18.03,-1.06,18.1
23.408036947250366,-4.84,-14.1,-0.36,14.91
23.41000008583069,-5.67,-9.22,-0.87,10.85
23.41377592086792,-4.3,-5.23,-3.35,7.55
23.41649293899536,-4.89,-0.5,-6.33,8.01
23.419263124465942,-7.3,4.33,-8.79,12.21
23.42210102081299,-11.19,8.35,-9.37,16.81
23.425234079360962,-15.33,11.24,-1.66,19.08
23.42739987373352,-13.01,15.27,1.17,20.09
23.442641019821167,-6.61,21.36,2.77,22.53
23.55394196510315,-0.37,19.01,4.59,19.55
23.556599855422974,2.37,10.81,5.03,12.15
23.558517932891846,-1.0,6.68,2.42,7.17
23.560487031936646,-5.44,6.61,1.52,8.69
23.577656030654907,-7.82,7.92,1.68,11.25
23.57959008216858,-7.77,9.66,1.68,12.51
23.583173990249634,-6.08,10.75,3.13,12.74
23.586055040359497,-2.6,10.61,4.44,11.79
23.588814973831177,0.3,10.0,4.34,10.9
23.59188485145569,3.53,9.27,3.91,10.66
23.70237708091736,7.37,8.65,2.28,11.59
23.704949140548706,9.2,7.88,-0.47,12.12
23.70692491531372,9.09,6.27,-2.73,11.37
23.708838939666748,8.51,3.27,-4.06,9.97
23.712144136428833,8.51,-0.5,-2.67,8.93
23.71476912498474,8.72,-5.34,0.93,10.26
23.717528104782104,7.62,-9.83,3.09,12.81
23.720298051834106,4.84,-9.63,3.0,11.18
23.723149061203003,2.64,-4.56,1.29,5.42
23.725855112075806,2.76,-0.07,-0.54,2.81
23.837270975112915,4.25,1.89,-0.68,4.7
23.83980393409729,6.33,1.9,-0.22,6.61
23.841731786727905,7.45,0.91,-0.31,7.51
23.843679904937744,6.26,-0.21,-0.23,6.26
23.860260009765625,3.37,-0.12,-0.05,3.37
23.862226009368896,1.22,0.01,0.28,1.25
23.865960836410522,-0.17,-0.44,1.03,1.13
23.868767976760864,-1.08,-0.75,1.23,1.8
23.871544122695923,-1.74,-0.91,1.77,2.64
23.87425994873047,-1.37,-1.32,1.56,2.46
23.986086130142212,-0.81,-1.99,0.77,2.28
23.988753080368042,-0.36,-2.98,0.24,3.01
23.99070382118225,0.25,-3.43,0.9,3.55
23.99261999130249,1.87,-2.96,0.65,3.56
23.99574303627014,5.36,-1.74,-1.01,5.72
23.99854302406311,5.55,0.67,-6.62,8.66
24.00130581855774,1.92,-0.82,-18.56,18.67
24.00412106513977,-5.82,-7.19,-2.54,9.59
24.006932020187378,-4.5,-11.15,9.35,15.23
24.0092670917511,-2.55,-5.79,3.6,7.27
24.12040400505066,-16.51,-4.77,-6.31,18.3
24.122962951660156,-28.76,-26.27,3.33,39.09
24.12496304512024,-12.55,-37.68,24.44,46.63
24.12696599960327,0.23,-14.05,28.85,32.09
24.14482593536377,-2.8,2.35,4.08,5.47
24.14692711830139,-0.78,8.31,-11.5,14.2
24.14968705177307,8.69,10.28,-13.79,19.27
24.1525719165802,19.12,13.64,-14.92,27.82
24.15535593032837,20.13,15.24,-15.71,29.73
24.15868306159973,15.11,9.31,-14.98,23.22
24.271026849746704,12.66,2.14,-10.11,16.34
24.273627996444702,11.87,-1.68,-0.99,12.02
24.275617837905884,8.36,-4.23,3.29,9.93
24.277733087539673,1.44,-6.33,3.55,7.39
24.294426918029785,-5.99,-6.75,3.92,9.83
24.296536922454834,-11.36,-5.21,4.63,13.32
24.29921293258667,-14.98,-1.89,5.36,16.02
24.302001953125,-15.36,1.1,4.71,16.1
24.30466389656067,-13.22,3.12,2.99,13.9
24.30739998817444,-10.04,3.58,0.66,10.67
24.41958999633789,-6.97,3.07,-0.73,7.65
24.42202591896057,-4.12,2.2,-0.73,4.72
24.42392086982727,-2.07,0.86,1.15,2.51
24.425830125808716,-2.09,-0.37,2.92,3.6
24.42905879020691,-3.45,-1.0,3.5,5.01
24.43188500404358,-3.96,-0.74,1.77,4.4
24.434651136398315,-3.05,-0.14,0.73,3.13
24.437432050704956,-1.39,1.0,0.63,1.82
24.440354108810425,-0.47,2.45,-0.15,2.49
24.442877054214478,-0.94,3.13,-0.91,3.39
24.444689989089966,-1.96,2.33,-0.51,3.08
24.571152925491333,-2.47,1.04,0.45,2.71
24.57321000099182,0.51,0.95,-1.01,1.47
24.575158834457397,5.89,3.36,-1.12,6.87
24.577547788619995,7.88,5.93,1.61,9.99
24.595082998275757,3.94,5.38,1.73,6.88
24.597176790237427,-2.18,1.96,-0.64,3.0
24.599905967712402,-6.67,-3.45,-0.88,7.56
24.60276699066162,-11.78,-13.17,-1.24,17.71
24.605278968811035,-10.9,-22.76,1.27,25.26
24.608022928237915,1.93,-20.28,2.04,20.47
24.72067379951477,10.25,-13.02,0.0,16.57
24.72331404685974,7.1,-11.09,-0.01,13.16
24.725266933441162,0.05,-14.03,0.15,14.03
24.727225065231323,-3.32,-19.18,0.14,19.46
24.743924856185913,-0.88,-21.36,1.83,21.45
24.74593710899353,0.83,-17.7,1.55,17.78
24.74882698059082,-0.99,-10.71,1.79,10.9
24.751604795455933,-3.77,-4.87,0.98,6.23
24.75438094139099,-5.68,-1.2,0.14,5.8
24.757143020629883,-6.84,2.52,2.11,7.58
24.8689968585968,-9.96,7.03,2.69,12.48
24.87106490135193,-16.03,14.1,3.53,21.63
24.8734929561615,-18.59,24.85,1.29,31.06
24.876375913619995,-12.57,28.76,-1.73,31.43
24.878523111343384,-2.99,20.02,-1.27,20.28
24.894562005996704,2.52,12.2,-0.13,12.45
24.896640062332153,2.77,8.5,-0.58,8.95
24.899515867233276,1.68,6.37,-1.68,6.79
24.90229105949402,0.57,5.43,-2.46,5.98
24.905071020126343,0.64,5.22,-2.49,5.81
25.01817798614502,1.61,5.68,-2.94,6.59
25.02033305168152,2.69,5.97,-2.21,6.91
25.022718906402588,2.41,6.87,-1.22,7.38
25.026024103164673,1.25,7.98,0.11,8.07
25.028364896774292,1.11,7.68,1.68,7.93
25.04508399963379,1.99,6.68,1.59,7.14
25.047157049179077,3.55,4.99,0.32,6.13
25.04999613761902,5.48,2.27,-1.17,6.04
25.052798986434937,6.73,-0.87,-2.0,7.07
25.055583000183105,7.34,-4.29,-1.89,8.7
25.167653799057007,6.98,-7.12,-1.04,10.02
25.169881105422974,5.22,-7.22,-0.88,8.95
25.172302961349487,4.1,-4.67,-1.74,6.45
25.175952911376953,4.69,-2.87,-2.08,5.87
25.178030014038086,4.76,-1.31,-2.43,5.5
25.18094301223755,5.26,0.01,-1.87,5.58
25.183347940444946,5.06,1.35,-0.3,5.24
25.186203956604004,4.86,1.89,0.78,5.27
25.188985109329224,2.5,1.22,0.59,2.84
25.19244694709778,-0.77,0.24,0.65,1.03
25.303673028945923,-2.1,-1.07,1.1,2.6
25.306294918060303,-2.25,-1.18,1.95,3.2
25.30821681022644,-2.2,-1.17,1.82,3.08
25.310153007507324,-2.44,-1.25,1.04,2.93
25.327893018722534,-1.92,-1.01,0.83,2.32
25.329967975616455,0.17,-0.46,1.0,1.11
25.332780122756958,3.77,0.15,-0.7,3.83
25.335642099380493,2.27,1.29,-3.4,4.28
25.338385820388794,-3.98,-2.78,-8.53,9.81
25.34111499786377,-4.52,-11.31,-2.52,12.43
25.45204997062683,-3.26,-14.86,2.74,15.45
25.45465588569641,4.7,-9.96,10.42,15.16
25.456614017486572,-3.94,-2.3,0.07,4.56
25.458513975143433,-17.63,-4.25,-11.22,21.32
25.46201205253601,-15.8,-16.19,-3.54,22.89
25.46460509300232,2.01,-21.51,19.24,28.92
25.467358827590942,12.76,-9.89,17.1,23.51
25.470120906829834,10.98,-0.01,-4.15,11.73
25.472880125045776,8.05,3.46,-8.71,12.35
25.476220846176147,9.06,5.68,-9.23,14.12
25.586432933807373,9.3,7.91,-12.34,17.35
25.58925199508667,8.22,7.93,-10.33,15.4
25.59121799468994,8.8,5.12,-7.02,12.36
25.59312605857849,8.5,1.72,-2.98,9.16
25.596539974212646,5.3,-1.05,-0.65,5.44
25.599220037460327,0.56,-2.73,0.36,2.81
25.60201597213745,-3.57,-3.5,1.72,5.28
25.604761838912964,-6.41,-3.07,3.01,7.71
25.607542991638184,-7.67,-1.47,4.03,8.78
25.610162019729614,-7.41,-0.13,3.9,8.37
25.612026929855347,-6.79,0.52,3.62,7.71
25.734451055526733,-6.28,0.85,2.78,6.92
25.736605882644653,-5.9,0.91,1.56,6.17
25.738390922546387,-5.9,1.26,1.35,6.18
25.74099087715149,-6.04,1.59,1.55,6.43
25.743881940841675,-6.23,1.62,2.4,6.87
25.746546030044556,-6.13,1.29,3.61,7.23
25.74932599067688,-5.89,0.59,4.29,7.31
25.75208306312561,-5.12,-0.26,2.22,5.58
25.75475001335144,-3.46,-0.8,0.94,3.67
25.757599115371704,-1.24,-0.44,1.53,2.01
25.86753010749817,0.97,0.49,0.19,1.1
25.86955714225769,2.13,1.6,-0.16,2.66
25.87211799621582,1.18,2.12,1.61,2.91
25.87481379508972,-0.68,2.07,1.28,2.52
25.876688957214355,-0.07,2.29,-0.39,2.32
25.879660844802856,3.61,3.55,-0.52,5.08
25.88248300552368,5.95,4.8,-0.81,7.68
25.885201930999756,2.51,3.49,-0.17,4.3
25.88785481452942,-4.14,-0.82,-0.69,4.27
25.890572786331177,-8.83,-6.67,-2.1,11.26
26.00048804283142,-9.17,-13.49,-1.57,16.38
26.002573013305664,-5.15,-19.65,-0.39,20.31
26.00491690635681,-1.57,-23.05,0.73,23.11
26.007771968841553,1.59,-19.14,2.92,19.42
26.010536909103394,2.56,-11.35,0.35,11.64
26.012598991394043,1.2,-7.12,-4.04,8.27
26.02889084815979,-0.69,-6.16,-1.92,6.48
26.030966997146606,-3.3,-8.8,-1.84,9.57
26.03375506401062,-5.13,-9.8,-1.14,11.12
26.03650999069214,-3.82,-6.76,0.61,7.78
26.145705938339233,-2.62,-2.73,-1.78,4.18
26.14841914176941,-2.78,0.3,-2.0,3.43
26.150272130966187,-4.67,3.0,-0.02,5.55
26.152962923049927,-9.45,5.84,2.55,11.39
26.155766010284424,-13.98,11.16,4.3,18.39
26.158365964889526,-15.49,21.72,2.34,26.78
26.1602680683136,-13.14,27.59,-1.95,30.62
26.16287899017334,-6.16,18.84,-6.14,20.75
26.165570974349976,-2.78,11.29,-5.76,12.97
26.168360948562622,-1.56,6.79,-0.95,7.03
26.277626991271973,0.13,3.17,1.58,3.54
26.280178785324097,0.68,0.47,-0.15,0.84
26.281975984573364,0.99,-1.05,-2.72,3.07
26.28472113609314,2.83,-1.71,-2.12,3.92
26.287482023239136,5.74,-1.18,-0.02,5.86
26.290347814559937,7.81,1.05,-0.32,7.88
26.293159008026123,7.43,4.12,-1.22,8.58
26.295008897781372,5.73,6.66,-1.31,8.88
26.31187605857849,4.22,8.14,-0.38,9.17
26.313856840133667,3.09,8.24,0.07,8.8
26.421604871749878,1.86,7.15,0.07,7.38
26.42420196533203,2.27,3.69,-0.25,4.33
26.42611813545227,3.71,-0.1,-0.65,3.76
26.428096055984497,4.73,-2.58,-0.58,5.41
26.446120977401733,5.34,-5.15,-0.34,7.42
26.44817590713501,5.11,-6.33,-0.54,8.15
26.451009035110474,4.19,-5.02,-0.74,6.58
26.45368504524231,4.06,-2.2,-1.33,4.8
26.456477880477905,4.52,0.23,-1.15,4.66
26.459728956222534,5.17,2.01,-0.49,5.56
26.56532597541809,5.85,2.82,-0.12,6.49
26.567968130111694,5.87,2.4,-0.53,6.36
26.570031881332397,4.75,1.55,-0.94,5.08
26.57244896888733,2.69,0.53,-0.4,2.77
26.57507586479187,0.71,-0.68,0.97,1.38
26.577021837234497,-0.28,-1.77,1.09,2.09
26.57999300956726,-0.74,-1.81,0.93,2.16
26.582705974578857,-1.19,-1.18,1.39,2.17
26.585388898849487,-0.13,-0.7,1.23,1.42
26.587949991226196,1.77,-0.83,-2.9,3.49
26.695439100265503,-0.85,-1.31,-6.37,6.55
26.697932958602905,-0.98,-5.59,-0.79,5.72
26.699784994125366,-2.85,-9.36,6.56,11.77
26.71248507499695,-5.51,-9.55,1.12,11.08
26.71450901031494,-7.64,-6.42,-7.2,12.3
26.71750497817993,-13.42,-6.21,-5.61,15.81
26.720301866531372,-11.34,-15.76,3.71,19.76
26.723077058792114,1.06,-21.76,15.82,26.92
26.7254798412323,5.25,-12.01,20.64,24.45
26.72783589363098,2.53,-1.61,4.62,5.5
26.73069190979004,2.04,2.42,-6.03,6.81
26.83682894706726,5.68,2.95,-10.0,11.87
26.839414834976196,9.59,4.35,-12.79,16.56
26.84129309654236,10.59,6.6,-10.63,16.39
26.84324288368225,10.38,7.74,-8.78,15.64
26.84605383872986,10.78,6.71,-6.88,14.44
26.848761796951294,10.15,4.19,-2.62,11.28
26.851542949676514,6.78,1.62,-0.2,6.97
26.854310989379883,1.88,-0.53,1.42,2.41
26.857141971588135,-2.92,-2.47,2.42,4.52
26.860249996185303,-5.94,-4.17,2.63,7.71
26.96609401702881,-7.42,-5.06,3.01,9.47
26.968647956848145,-7.42,-4.3,3.22,9.16
26.970662832260132,-6.84,-2.43,2.83,7.79
26.974324941635132,-6.84,-0.51,2.45,7.28
26.97710680961609,-6.95,1.03,1.88,7.27
26.979955911636353,-6.47,2.3,1.18,6.96
26.997019052505493,-4.86,2.71,0.41,5.57
26.999072790145874,-3.49,2.73,-0.68,4.48
27.001956939697266,-2.82,2.64,0.16,3.86
27.004434823989868,-1.43,2.19,0.16,2.62
27.111881017684937,0.87,1.43,-0.31,1.7
27.11437702178955,2.47,0.68,0.98,2.74
27.1162588596344,1.75,-0.08,1.32,2.19
27.11883282661438,-0.69,-0.57,0.94,1.29
27.121351957321167,-1.74,-0.04,0.29,1.76
27.124138116836548,-1.87,0.51,0.07,1.93
27.12721300125122,-2.33,0.26,0.0,2.34
27.129292964935303,-3.63,-0.67,-0.55,3.73
27.146785020828247,-4.66,-2.44,-0.66,5.3
27.14881992340088,-5.37,-4.45,-0.23,6.97
27.255839109420776,-4.36,-5.28,0.0,6.84
27.258341073989868,0.84,-3.15,-0.21,3.26
27.260283946990967,5.85,0.4,-0.44,5.88
27.262311935424805,5.96,2.5,-0.22,6.46
27.279566049575806,1.11,1.26,-1.51,2.25
27.281614065170288,-4.19,-3.77,-1.37,5.8
27.284389972686768,-9.52,-12.96,0.53,16.08
27.287007093429565,-12.26,-23.44,2.6,26.58
27.289652109146118,-5.0,-24.23,4.58,25.16
27.292428970336914,3.14,-16.04,1.89,16.45
27.39842391014099,2.61,-9.97,-0.44,10.31
27.40101194381714,-3.26,-8.56,1.29,9.25
27.40294909477234,-7.93,-10.93,0.93,13.53
27.405647039413452,-8.95,-12.24,0.7,15.17
27.408363103866577,-8.53,-10.63,-1.18,13.68
27.411091089248657,-9.3,-7.32,-1.9,11.98
27.413100004196167,-10.56,-3.99,-1.45,11.38
27.42852282524109,-13.16,-0.8,-1.29,13.24
27.430525064468384,-15.51,2.83,-2.45,15.95
27.434200048446655,-15.29,6.57,-6.92,18.02
27.539772987365723,-14.81,9.42,-16.73,24.24
27.542388916015625,-13.88,7.71,-19.8,25.37
27.54430079460144,-9.14,2.62,-15.51,18.19
27.547180891036987,-2.3,-1.83,-9.24,9.69
27.54998803138733,5.0,-7.97,-5.76,11.03
27.552755117416382,9.29,-12.97,-7.45,17.6
27.55548405647278,8.03,-10.75,-11.17,17.45
27.558242082595825,3.85,-4.64,-13.35,14.64
27.56085181236267,0.59,0.46,-12.66,12.68
27.56273102760315,-1.49,3.76,-8.76,9.64
27.681548833847046,-3.6,5.22,-4.53,7.79
27.683626890182495,-6.15,5.21,-2.01,8.3
27.685563802719116,-8.42,4.02,-1.63,9.47
27.688323974609375,-8.74,1.93,-2.51,9.29
27.690990924835205,-7.22,-0.3,-4.46,8.49
27.693776845932007,-4.84,-3.12,-5.96,8.28
27.695791006088257,-2.24,-6.77,-6.73,9.8
27.712695837020874,-0.59,-8.34,-7.97,11.55
27.71460509300232,-0.59,-7.22,-8.25,10.97
27.717250108718872,-0.44,-5.57,-8.87,10.48
27.821465015411377,0.62,-4.65,-9.9,10.95
27.824076890945435,2.2,-4.57,-11.31,12.39
27.82592797279358,3.01,-4.1,-11.97,13.0
27.827866792678833,2.99,-3.18,-10.95,11.78
27.84682297706604,2.56,-2.2,-8.51,9.15
27.848817110061646,1.88,-1.29,-6.63,7.01
27.851773977279663,1.31,-0.84,-6.15,6.34
27.854551076889038,1.14,-1.3,-6.84,7.05
27.85732388496399,2.97,-2.29,-8.48,9.27
27.860435009002686,6.28,-3.56,-10.84,13.02
27.862268924713135,8.57,-3.91,-11.86,15.14
27.9803569316864,9.89,-2.37,-11.92,15.66
27.98244881629944,8.19,0.17,-13.04,15.39
27.98441195487976,5.75,2.21,-12.56,13.98
27.987262964248657,4.82,3.17,-10.73,12.18
27.990008115768433,5.08,2.96,-8.44,10.28
27.992559909820557,5.27,1.95,-7.61,9.45
27.994379997253418,5.61,0.53,-8.3,10.03
27.997528791427612,6.83,0.09,-9.32,11.55
28.000231981277466,7.83,0.8,-8.25,11.4
28.002861976623535,7.29,0.13,-3.17,7.95
28.105983018875122,3.86,-5.2,10.53,12.36
28.108558893203735,2.65,-15.22,21.38,26.37
28.110413789749146,5.04,-20.96,11.2,24.29
28.112343072891235,5.34,-11.44,8.18,15.04
28.12926697731018,4.95,0.69,3.84,6.3
28.131319999694824,5.41,7.24,-3.87,9.83
28.13418412208557,4.68,9.49,-10.16,14.66
28.137000799179077,3.45,8.72,-12.85,15.9
28.13972306251526,4.1,6.32,-12.77,14.82
28.142475843429565,5.62,3.25,-10.26,12.14
28.243554830551147,6.33,-0.09,-9.36,11.29
28.246143102645874,7.1,-3.37,-10.37,13.01
28.248065948486328,7.24,-4.33,-7.42,11.23
28.25077199935913,5.81,-3.39,-3.52,7.59
28.2534921169281,3.63,-2.41,-1.04,4.47
28.25637412071228,1.54,-1.19,0.67,2.05
28.25912308692932,-2.3,0.52,2.97,3.79
28.260946035385132,-4.96,0.76,3.92,6.36
28.26398491859436,-5.54,-0.16,3.05,6.32
28.266745805740356,-5.06,-0.29,2.14,5.5
28.367918968200684,-1.92,-0.86,1.29,2.46
28.37050199508667,1.46,-1.08,0.18,1.82
28.372277975082397,3.89,-1.08,-0.86,4.12
28.374720811843872,4.81,-0.08,-2.0,5.2
28.377660036087036,3.59,1.17,-2.77,4.68
28.37976384162903,1.41,1.74,-2.74,3.53
28.397655963897705,-0.44,1.67,-1.95,2.6
28.399840116500854,-1.16,0.76,-1.1,1.77
28.402668952941895,-1.61,0.2,0.09,1.62
28.405268907546997,-3.04,0.14,0.9,3.17
28.50485110282898,-4.12,-0.39,0.98,4.25
28.507587909698486,-4.61,-0.69,0.68,4.71
28.509434938430786,-4.44,-0.9,0.31,4.54
28.512341022491455,-3.16,-1.24,-0.05,3.39
28.529542922973633,-2.29,-1.2,-0.48,2.62
28.53162407875061,-2.18,-0.69,-0.63,2.37
28.534512996673584,-2.19,-0.23,-0.7,2.31
28.537149906158447,-3.06,-0.22,-0.7,3.14
28.5397789478302,-4.21,-0.72,1.0,4.38
28.542573928833008,-5.61,-0.5,2.44,6.13
28.64008092880249,-6.84,-0.66,2.33,7.25
28.642717123031616,-6.82,-1.28,1.5,7.09
28.644697904586792,-5.78,-1.56,0.68,6.02
28.647753953933716,-3.76,-1.59,-0.1,4.08
28.65033197402954,-2.27,-1.45,0.14,2.69
28.653138875961304,-2.15,-0.61,-0.94,2.42
28.65591311454773,-2.48,-0.34,-2.34,3.42
28.658726930618286,-1.8,-0.82,-3.67,4.16
28.661446809768677,-0.64,-2.02,-2.54,3.3
28.663343906402588,-2.02,-3.84,-0.06,4.33
28.77376914024353,-5.37,-5.61,1.85,7.98
28.775985956192017,-8.79,-6.22,3.45,11.3
28.77786898612976,-8.46,-7.01,5.79,12.41
28.781007051467896,-5.73,-7.4,4.15,10.23
28.78374695777893,-4.05,-8.57,2.5,9.8
28.786521911621094,-3.9,-12.61,1.85,13.32
28.78926396369934,-6.55,-16.55,1.36,17.85
28.792104959487915,-10.3,-17.25,0.1,20.09
28.79448890686035,-12.23,-15.6,-0.56,19.83
28.796332120895386,-11.92,-12.5,-0.69,17.28
28.907572984695435,-10.95,-8.87,-0.42,14.09
28.909670114517212,-10.12,-6.28,-0.84,11.93
28.911607027053833,-8.83,-4.95,-2.26,10.37
28.914464950561523,-8.17,-4.37,-4.51,10.3
28.91722798347473,-7.51,-3.87,-4.48,9.56
28.920045137405396,-6.31,-2.88,-3.73,7.87
28.922745943069458,-3.82,-1.5,-4.92,6.4
28.92546796798706,-0.88,0.31,-8.16,8.21
28.928037881851196,0.19,1.85,-9.65,9.82
28.929927110671997,-0.73,2.67,-8.63,9.06
28.945996046066284,-1.24,3.56,-7.52,8.41
29.04229497909546,-0.52,5.1,-7.06,8.72
29.044957876205444,0.81,6.36,-5.81,8.65
29.047106981277466,1.68,6.89,-4.76,8.54
29.049896001815796,0.92,6.96,-4.74,8.47
29.052491903305054,-1.23,7.17,-4.85,8.74
29.055275917053223,-3.05,7.23,-4.89,9.24
29.057979822158813,-3.77,7.44,-4.96,9.7
29.061354875564575,-3.7,7.81,-5.0,9.98
29.064093828201294,-3.34,8.37,-5.23,10.41
29.07924485206604,-2.9,8.58,-5.59,10.64
29.17462706565857,-2.85,8.4,-4.69,10.03
29.17729091644287,-2.5,8.95,-2.01,9.5
29.179356813430786,-1.55,9.42,0.47,9.55
29.182173013687134,0.38,9.16,0.55,9.18
29.18488907814026,2.7,8.32,-1.64,8.89
29.1876859664917,4.53,7.24,-4.35,9.58
29.190428972244263,5.73,6.59,-7.28,11.36
29.192932844161987,7.12,5.53,-7.93,12.0
29.194756984710693,7.97,5.08,-7.65,12.15
29.197859048843384,9.04,4.35,-7.0,12.23
29.29400086402893,10.05,3.66,-7.14,12.85
29.29657292366028,10.27,3.28,-7.21,12.96
29.298453092575073,10.44,2.87,-6.6,12.68
29.301307916641235,10.65,2.01,-5.92,12.34
29.304115056991577,9.69,1.8,-5.28,11.18
29.306880950927734,7.52,2.38,-3.91,8.8
29.309487104415894,5.69,3.09,-2.6,6.97
29.311299085617065,4.73,3.18,-1.42,5.87
29.31453013420105,4.19,2.49,-0.97,4.96
29.317320108413696,4.47,0.93,-1.57,4.82
29.41353487968445,5.81,-1.25,-0.76,5.99
29.41639995574951,6.46,-1.73,-0.46,6.7
29.418303966522217,5.26,-1.04,-1.73,5.63
29.421183824539185,3.25,-0.78,-1.55,3.68
29.42381501197815,2.35,-1.1,-1.27,2.88
29.426337003707886,0.51,-1.07,-0.5,1.28
29.428205013275146,-1.13,-0.85,-0.44,1.48
29.431392908096313,-1.4,-1.65,-0.67,2.26
29.4342200756073,-1.56,-2.9,-1.41,3.58
29.436978101730347,-2.06,-2.98,-1.81,4.04
29.53151297569275,-1.06,-2.33,-1.33,2.88
29.5340678691864,1.49,-1.04,-0.12,1.82
29.535937070846558,5.18,0.43,-0.4,5.21
29.538599014282227,7.94,2.01,-2.62,8.59
29.5413978099823,8.05,2.05,-4.41,9.4
29.54464602470398,2.55,-5.14,-8.45,10.21
29.546717882156372,-8.93,-15.09,4.05,17.99
29.563735961914062,-10.96,-13.48,8.2,19.21
29.56572198867798,-17.95,-6.46,-2.03,19.18
29.568646907806396,-31.83,-16.52,-7.24,36.58
29.663239002227783,-24.54,-32.41,10.81,42.06
29.665851831436157,0.78,-19.38,29.11,34.97
29.66769790649414,8.13,-1.77,8.83,12.13
29.670368909835815,5.57,5.2,-6.18,9.81
29.6731219291687,7.7,8.17,-10.33,15.25
29.676048040390015,14.09,10.31,-15.92,23.62
29.6788170337677,16.05,14.46,-14.51,26.02
29.680787801742554,13.73,15.06,-10.99,23.15
29.6967670917511,10.96,8.65,-8.46,16.32
29.698764085769653,9.15,2.43,-2.65,9.83
29.794872045516968,5.02,-2.19,2.8,6.15
29.797419786453247,-1.44,-5.82,4.27,7.36
29.79928493499756,-7.79,-9.23,4.37,12.84
29.803084135055542,-11.73,-10.2,4.51,16.18
29.80590796470642,-12.02,-6.47,4.2,14.28
29.808741807937622,-9.84,-1.88,3.2,10.51
29.811393976211548,-7.6,0.91,1.95,7.89
29.813239812850952,-5.64,2.22,1.11,6.16
29.83097195625305,-3.26,2.47,-0.56,4.12
29.832937955856323,0.12,2.86,-3.07,4.19
29.92694401741028,3.8,3.51,-3.01,5.98
29.929459810256958,5.24,3.1,-1.0,6.16
29.931293964385986,2.54,1.37,-0.24,2.89
29.93406891822815,-1.11,0.22,0.29,1.16
29.93675398826599,-1.68,0.44,0.14,1.74
29.939491033554077,-0.32,1.98,0.45,2.05
29.942341089248657,-0.33,2.89,1.21,3.15
29.94510006904602,-2.63,2.04,2.14,3.95
29.947110891342163,-4.35,0.12,1.68,4.66
29.963730096817017,-2.85,-1.41,0.42,3.2
29.96574592590332,-0.73,-2.71,0.13,2.8
30.059396982192993,-1.15,-4.65,0.13,4.79
30.06199812889099,-2.94,-6.81,1.27,7.52
30.063852071762085,-3.5,-7.64,1.2,8.48
30.067449808120728,-3.06,-6.79,1.26,7.55
30.07025408744812,-3.17,-5.98,1.7,6.97
30.073006868362427,-4.81,-5.85,1.29,7.68
30.075830936431885,-5.11,-5.98,1.25,7.96
30.07852602005005,-2.8,-5.71,-0.31,6.36
30.080575942993164,-0.84,-6.6,-2.17,6.99
30.096400022506714,-0.8,-11.04,-2.14,11.27
30.18773913383484,-1.57,-17.91,-2.39,18.13
30.19035792350769,-1.09,-20.39,-1.95,20.51
30.192332983016968,0.21,-16.24,0.58,16.25
30.195086002349854,-1.07,-8.93,0.68,9.01
30.19712805747986,-2.54,-3.58,-0.4,4.4
30.213599920272827,-5.18,0.23,1.61,5.42
30.21557879447937,-7.79,2.85,3.95,9.18
30.219292879104614,-10.91,5.8,4.23,13.05
30.222079038619995,-14.65,11.66,1.92,18.82
30.224851846694946,-18.38,23.55,-1.3,29.9
30.320700883865356,-17.22,32.55,-4.49,37.09
30.322892904281616,-7.96,24.78,-4.52,26.41
30.325341939926147,0.08,15.37,-0.08,15.37
30.328553915023804,1.85,10.16,2.3,10.58
30.330617904663086,0.02,7.96,-0.71,7.99
30.34643006324768,-1.08,6.58,-3.66,7.6
30.348428964614868,0.8,5.44,-4.2,6.91
30.35121512413025,4.15,4.2,-2.32,6.34
30.35399889945984,6.04,2.73,-0.17,6.63
30.356750965118408,6.54,1.75,0.8,6.81
30.447155952453613,6.6,1.75,0.21,6.83
30.449711084365845,6.87,1.28,-1.23,7.09
30.451545000076294,7.33,-0.35,-2.17,7.65
30.46457600593567,7.73,-2.29,-1.92,8.28
30.466591119766235,8.06,-4.21,-1.2,9.17
30.46941113471985,7.66,-4.92,-0.99,9.15
30.472134828567505,6.48,-4.36,-0.7,7.84
30.47489285469055,5.06,-2.85,-0.8,5.86
30.478264093399048,4.05,-1.37,-0.89,4.36
30.480501890182495,3.43,-0.97,0.34,3.58
30.570425987243652,4.51,-2.4,1.68,5.37
30.57297396659851,4.14,-3.08,1.07,5.26
30.57481098175049,2.88,-3.23,1.09,4.46
30.57750391960144,1.26,-2.57,1.66,3.3
30.57948398590088,-0.29,-1.16,2.0,2.33
30.582356929779053,-1.51,-0.11,1.22,1.94
30.585102796554565,-2.03,-0.39,1.53,2.57
30.587866067886353,-1.88,-1.11,2.25,3.13
30.59057879447937,-0.8,-1.32,2.9,3.28
30.593315839767456,0.93,-1.01,3.04,3.33
30.682496786117554,3.47,-0.52,-0.59,3.55
30.684540033340454,2.68,1.15,-9.38,9.82
30.686807870864868,-0.52,-1.72,-12.68,12.8
30.689736127853394,-8.74,-7.99,4.82,12.78
30.6925950050354,-10.7,-11.12,7.23,17.04
30.695268869400024,-9.53,-4.61,-9.37,14.13
30.69748592376709,-12.89,-2.65,-10.1,16.58
30.714967966079712,-13.5,-15.41,2.4,20.62
30.716982126235962,-0.95,-26.7,16.56,31.43
30.71988081932068,5.98,-16.6,21.84,28.07
30.80922293663025,4.48,-2.87,5.34,7.53
30.811612844467163,4.62,2.1,-4.45,6.74
30.813491106033325,8.6,3.74,-7.75,12.16
30.816184997558594,10.93,5.86,-10.72,16.39
30.819019079208374,10.18,8.5,-11.05,17.26
30.821818113327026,9.18,9.57,-11.01,17.23
30.824265956878662,8.89,7.48,-7.51,13.83
30.82706093788147,7.4,4.02,-2.06,8.66
30.828925848007202,3.55,1.09,0.7,3.77
30.831941843032837,-1.72,-1.06,2.32,3.07
30.922084093093872,-6.66,-3.54,4.96,9.02
30.92463994026184,-10.25,-5.28,5.6,12.81
30.926510095596313,-11.14,-5.83,4.05,13.2
30.928409814834595,-9.16,-4.15,3.57,10.67
30.932146787643433,-6.37,-1.54,2.65,7.06
30.934813022613525,-4.11,0.38,1.07,4.26
30.937489986419678,-2.56,0.95,0.65,2.8
30.94030499458313,-1.29,1.47,0.06,1.95
30.9430091381073,0.23,2.75,-0.46,2.79
30.945717096328735,1.77,4.57,0.06,4.9
30.947624921798706,2.22,5.96,0.02,6.36
31.050421953201294,0.33,4.98,0.29,4.99
31.052565813064575,-2.3,2.0,0.31,3.06
31.054471969604492,-3.96,-1.08,0.75,4.17
31.05725407600403,-3.05,-2.89,-0.36,4.21
31.060020923614502,1.2,-2.41,-0.12,2.69
31.062698125839233,3.09,-0.53,2.52,4.02
31.06471300125122,-1.12,-0.08,3.45,3.62
31.080631971359253,-5.71,-0.67,1.84,6.03
31.082620859146118,-3.81,-0.32,-0.93,3.93
31.086205005645752,-0.15,0.89,-1.27,1.55
31.17693305015564,0.65,1.02,-0.24,1.23
31.179784059524536,0.64,-0.35,-1.47,1.64
31.18162512779236,0.18,-1.71,-2.52,3.05
31.184498071670532,-0.44,-3.61,-2.79,4.58
31.187247037887573,-1.47,-7.48,-1.45,7.75
31.18997883796692,-3.92,-15.13,-0.51,15.63
31.192811965942383,-5.47,-26.29,-0.58,26.85
31.195337057113647,-4.05,-33.97,2.4,34.29
31.197223901748657,-1.18,-25.45,4.69,25.9
31.2138729095459,-1.42,-13.91,0.16,13.98
31.303133010864258,-2.6,-8.61,-1.56,9.12
31.305680990219116,-2.52,-4.81,1.72,5.69
31.307607889175415,-2.83,-1.14,2.27,3.8
31.310406923294067,-3.74,2.33,-0.47,4.43
31.31221604347229,-5.12,4.78,0.58,7.02
31.315685987472534,-8.12,7.54,2.44,11.34
31.31846594810486,-12.08,12.55,4.24,17.92
31.321204900741577,-14.05,22.18,4.04,26.56
31.323775053024292,-12.14,30.91,1.98,33.26
31.32648801803589,-6.5,25.86,-1.44,26.7
31.41673493385315,-3.73,15.21,-3.63,16.07
31.41896891593933,-4.5,9.25,-2.85,10.67
31.42131781578064,-3.43,5.92,-2.23,7.19
31.424227952957153,-0.98,3.41,-1.98,4.06
31.426780939102173,1.73,1.37,-1.79,2.84
31.429678916931152,4.39,-0.65,-1.15,4.58
31.431919813156128,6.26,-1.92,0.13,6.54
31.448246955871582,6.41,-0.99,0.9,6.54
31.450159788131714,5.72,1.69,0.31,5.97
31.45280909538269,5.24,3.78,-1.1,6.55
31.543231964111328,5.12,3.8,-2.16,6.73
31.54581093788147,4.65,3.19,-2.2,6.05
31.54792094230652,4.52,1.43,-0.87,4.81
31.550616025924683,4.92,-0.83,-0.11,4.99
31.553387880325317,5.63,-2.51,-0.86,6.22
31.556159019470215,6.27,-3.27,-1.44,7.21
31.558897972106934,6.51,-3.23,-1.02,7.33
31.5622661113739,6.39,-2.84,-0.78,7.03
31.56446099281311,5.51,-1.97,-0.92,5.92
31.567282915115356,4.43,-0.81,-1.06,4.62
