time,ax,ay,az,atotal
0.003144979476928711,0.06,0.24,-0.17,0.3
0.006076812744140625,0.07,0.17,-0.21,0.27
0.008308887481689453,0.08,0.1,-0.13,0.18
0.012048006057739258,0.1,0.05,-0.09,0.14
0.015538930892944336,0.18,0.06,-0.14,0.23
0.017920970916748047,0.25,0.12,-0.14,0.31
0.0216829776763916,0.3,0.21,0.01,0.36
0.024655818939208984,0.33,0.28,0.13,0.45
0.02864694595336914,0.32,0.32,0.17,0.48
0.03212404251098633,0.23,0.32,0.03,0.39
0.09497690200805664,0.11,0.23,0.0,0.25
0.09892988204956055,0.15,0.11,0.13,0.22
0.10180902481079102,0.31,0.01,0.21,0.37
0.10488414764404297,0.45,0.07,0.23,0.51
0.1089010238647461,0.46,0.21,0.12,0.51
0.11276793479919434,0.37,0.28,0.05,0.46
0.11640787124633789,0.25,0.23,0.06,0.34
0.11875104904174805,0.1,0.13,0.17,0.23
0.13444805145263672,-0.04,0.07,0.29,0.3
0.13683199882507324,-0.2,-0.05,0.3,0.36
0.2015700340270996,-0.29,-0.14,0.22,0.39
0.2044849395751953,-0.28,-0.15,0.18,0.36
0.20654702186584473,-0.28,-0.12,0.1,0.32
0.2100081443786621,-0.3,-0.03,-0.05,0.3
0.21299099922180176,-0.31,0.02,-0.18,0.35
0.2159419059753418,-0.16,-0.03,-0.2,0.25
0.21825599670410156,0.09,-0.12,-0.21,0.25
0.23434901237487793,0.19,-0.14,-0.26,0.35
0.23671197891235352,0.1,0.0,-0.3,0.31
0.23969602584838867,-0.03,0.11,-0.3,0.32
0.30364394187927246,-0.07,0.1,-0.23,0.26
0.3066229820251465,-0.12,0.05,-0.12,0.17
0.3088209629058838,-0.19,0.02,-0.01,0.19
0.31255388259887695,-0.16,0.03,0.06,0.17
0.315964937210083,-0.01,-0.01,0.09,0.09
0.318544864654541,0.07,-0.03,0.1,0.12
0.33514404296875,0.06,0.03,0.13,0.14
0.3375868797302246,0.05,0.12,0.2,0.23
0.34095287322998047,0.07,0.13,0.17,0.22
0.3448829650878906,0.1,0.09,0.01,0.13
0.3476428985595703,0.17,0.05,-0.1,0.2
0.41016197204589844,0.23,0.02,-0.15,0.27
0.41315603256225586,0.32,0.03,-0.22,0.38
0.4154670238494873,0.37,0.04,-0.26,0.45
0.4177870750427246,0.35,0.08,-0.28,0.45
0.43444204330444336,0.32,0.11,-0.21,0.39
0.43672800064086914,0.27,0.11,-0.17,0.33
0.44039297103881836,0.19,0.04,-0.1,0.21
0.44450807571411133,0.11,0.01,0.01,0.11
0.4488511085510254,0.02,0.09,0.16,0.18
0.4511070251464844,0.0,0.16,0.23,0.28
0.5140790939331055,0.12,0.17,0.18,0.27
0.5171198844909668,0.26,0.1,0.08,0.28
0.5193150043487549,0.31,0.07,-0.03,0.31
0.5230278968811035,0.24,0.08,-0.07,0.26
0.5270748138427734,0.18,0.07,-0.06,0.2
0.5309979915618896,0.12,0.08,-0.04,0.14
0.5332939624786377,0.0,0.09,-0.07,0.11
0.537074089050293,-0.09,0.05,-0.1,0.14
0.5408930778503418,-0.08,0.01,-0.1,0.12
0.5434889793395996,-0.03,0.01,-0.06,0.06
0.6048188209533691,0.01,0.04,-0.01,0.04
0.6077139377593994,0.0,0.05,0.04,0.06
0.6098971366882324,-0.1,0.02,0.08,0.12
0.6171050071716309,-0.23,0.02,0.1,0.25
0.6193051338195801,-0.31,0.04,0.13,0.33
0.6228430271148682,-0.25,0.03,0.13,0.28
0.6255578994750977,-0.07,0.02,0.06,0.09
0.62847900390625,0.04,0.0,-0.02,0.04
0.6312971115112305,0.06,0.01,-0.05,0.07
0.6335339546203613,0.01,0.03,-0.02,0.03
0.6962969303131104,-0.08,0.05,-0.01,0.09
0.6991839408874512,-0.18,0.05,-0.03,0.18
0.7016749382019043,-0.18,0.02,0.04,0.18
0.7039761543273926,-0.09,0.02,0.14,0.16
0.706794023513794,0.0,0.05,0.07,0.08
0.7097349166870117,0.03,0.04,-0.02,0.05
0.7136998176574707,-0.01,0.04,-0.01,0.04
0.717350959777832,-0.08,0.06,0.04,0.1
0.7195930480957031,-0.11,0.08,0.11,0.17
0.7332580089569092,-0.08,0.08,0.15,0.18
0.7936820983886719,-0.01,0.05,0.11,0.12
0.7967269420623779,0.05,0.06,0.02,0.08
0.7989130020141602,0.05,0.08,-0.01,0.09
0.8010499477386475,0.06,0.09,0.0,0.1
0.8184659481048584,0.1,0.06,0.01,0.11
0.8210139274597168,0.13,0.05,0.05,0.14
0.8251490592956543,0.16,0.07,-0.02,0.17
0.8293390274047852,0.21,0.1,0.0,0.23
0.8324239253997803,0.19,0.12,0.1,0.24
0.8359298706054688,0.1,0.08,0.11,0.16
0.8985748291015625,0.05,0.05,0.07,0.09
0.9014530181884766,0.04,0.05,0.04,0.07
0.9034481048583984,0.08,0.05,0.03,0.09
0.9070780277252197,0.12,0.07,0.02,0.14
0.9098899364471436,0.16,0.09,0.0,0.18
0.9140629768371582,0.18,0.05,-0.04,0.19
0.9177718162536621,0.14,0.0,-0.1,0.17
0.9200220108032227,0.1,0.01,-0.08,0.12
0.9345998764038086,0.09,0.06,-0.05,0.11
0.936957836151123,0.08,0.09,-0.04,0.12
0.9980530738830566,0.0,0.09,-0.03,0.09
1.001060962677002,-0.08,0.06,-0.05,0.11
1.003335952758789,-0.18,0.07,-0.03,0.19
1.0070171356201172,-0.22,0.05,0.01,0.22
1.0110900402069092,-0.13,0.02,0.02,0.13
1.0150771141052246,-0.01,0.01,-0.03,0.03
1.0174360275268555,0.09,0.05,-0.02,0.1
1.0211620330810547,0.13,0.11,0.0,0.17
1.0250768661499023,0.13,0.1,-0.01,0.16
1.0277938842773438,0.1,0.07,0.02,0.12
1.0898590087890625,0.08,0.03,0.06,0.1
1.0921850204467773,0.06,0.03,0.11,0.12
1.0957398414611816,0.01,0.07,0.14,0.15
1.0993449687957764,-0.05,0.1,0.09,0.14
1.10172700881958,-0.08,0.12,0.06,0.15
1.10520601272583,-0.08,0.1,0.07,0.14
1.1078500747680664,-0.07,0.08,0.08,0.13
1.1108150482177734,-0.04,0.1,0.09,0.14
1.1148459911346436,0.02,0.12,0.04,0.12
1.117124080657959,0.05,0.11,0.03,0.12
1.1205778121948242,0.07,0.1,0.0,0.12
1.1806020736694336,0.03,0.12,-0.04,0.13
1.1836390495300293,-0.01,0.09,-0.06,0.1
1.1857318878173828,-0.01,0.06,-0.07,0.09
1.1891050338745117,0.05,0.0,-0.03,0.05
1.1920619010925293,0.09,0.01,0.05,0.1
1.196180820465088,0.1,0.08,0.11,0.16
1.1995849609375,0.09,0.11,0.12,0.18
1.2018098831176758,0.03,0.1,0.11,0.15
1.2172260284423828,-0.03,0.07,0.13,0.15
1.2194249629974365,-0.07,0.08,0.17,0.2
1.2795910835266113,0.02,0.08,0.15,0.17
1.2825078964233398,0.13,0.09,0.02,0.15
1.2851691246032715,0.18,0.08,-0.06,0.2
1.2890958786010742,0.19,0.04,-0.12,0.22
1.2928249835968018,0.18,-0.01,-0.12,0.21
1.2967329025268555,0.14,0.03,-0.09,0.16
1.299799919128418,0.1,0.12,-0.07,0.17
1.3019328117370605,0.1,0.16,-0.06,0.19
1.3171420097351074,0.11,0.13,-0.01,0.17
1.3196048736572266,0.05,0.11,0.01,0.12
1.3800301551818848,0.04,0.09,-0.06,0.11
1.3830618858337402,0.02,0.18,-0.24,0.3
1.3856511116027832,0.32,-0.23,-0.05,0.39
1.3897600173950195,0.16,-0.02,0.06,0.17
1.3938050270080566,-0.06,0.25,0.49,0.55
1.397810935974121,0.03,-0.03,0.3,0.3
1.401503086090088,-0.04,-0.21,0.21,0.29
1.403702974319458,-0.05,-0.05,0.38,0.38
1.4175529479980469,0.05,0.11,0.39,0.4
1.4198579788208008,0.07,0.14,0.13,0.2
1.4797120094299316,0.04,-0.01,-0.1,0.1
1.4828360080718994,0.08,0.03,-0.12,0.14
1.4854321479797363,0.24,0.17,-0.14,0.32
1.4894518852233887,0.37,0.14,-0.09,0.4
1.493485927581787,0.32,0.15,0.0,0.35
1.4975759983062744,0.07,0.17,0.11,0.21
1.5013940334320068,-0.28,0.16,0.17,0.36
1.5035901069641113,-0.48,0.17,0.23,0.55
1.5179381370544434,-0.39,0.18,0.22,0.48
1.5202398300170898,-0.17,0.1,0.15,0.24
1.5793349742889404,0.0,-0.07,0.12,0.13
1.5826568603515625,0.02,-0.23,0.2,0.3
1.5851898193359375,-0.16,-0.2,0.31,0.4
1.5886750221252441,-0.41,0.06,0.47,0.62
1.592400074005127,-0.75,0.24,0.72,1.06
1.5964751243591309,-1.17,0.08,0.87,1.46
1.5997459888458252,-1.37,-0.12,0.79,1.58
1.601881980895996,-1.28,-0.33,0.79,1.53
1.6178388595581055,-1.0,-0.34,0.76,1.3
1.620297908782959,-0.84,0.11,0.55,1.01
1.680001974105835,-0.68,0.65,0.27,0.97
1.6832349300384521,-0.19,0.36,-0.02,0.4
1.6859550476074219,0.21,-0.1,-0.2,0.3
1.6899869441986084,0.45,-0.38,-0.44,0.73
1.693838119506836,0.39,-0.35,-0.57,0.77
1.6978390216827393,0.07,-0.14,-0.7,0.71
1.701632022857666,-0.33,0.08,-0.75,0.82
1.703782081604004,-0.7,0.2,-0.39,0.82
1.7178640365600586,-0.76,0.17,0.38,0.86
1.7202680110931396,-0.65,0.08,1.12,1.29
1.7791991233825684,-0.83,0.03,1.54,1.74
1.782655954360962,-1.29,-0.01,2.04,2.41
1.7852530479431152,-1.74,-0.09,2.29,2.87
1.7886290550231934,-1.98,-0.16,1.73,2.63
1.7927308082580566,-1.79,-0.2,0.91,2.01
1.796764850616455,-1.12,-0.19,0.3,1.17
1.7998738288879395,-0.44,-0.1,-0.01,0.45
1.8020868301391602,0.02,0.04,-0.38,0.38
1.8175630569458008,0.23,0.15,-1.01,1.04
1.8198449611663818,0.27,0.18,-1.61,1.64
1.8788399696350098,0.23,0.14,-1.75,1.77
1.8827619552612305,0.11,0.08,-1.44,1.44
1.8853709697723389,0.02,-0.08,-1.03,1.03
1.8893370628356934,-0.08,-0.25,-0.68,0.72
1.8922879695892334,-0.34,-0.43,-0.26,0.6
1.8963661193847656,-0.63,-0.79,0.37,1.07
1.8999419212341309,-0.72,-1.2,0.83,1.62
1.9024038314819336,-0.67,-1.6,0.64,1.84
1.9058709144592285,-0.65,-1.85,0.06,1.96
1.9099159240722656,-0.85,-1.96,-0.36,2.16
1.9140081405639648,-1.4,-2.26,-0.23,2.66
1.971531867980957,-1.63,-2.92,0.42,3.37
1.973963975906372,-1.46,-3.73,1.03,4.13
1.9764549732208252,-1.52,-4.38,1.17,4.78
1.980578899383545,-1.94,-4.62,1.14,5.13
1.9835658073425293,-2.49,-4.32,1.05,5.09
1.9859750270843506,-2.87,-3.53,0.88,4.63
2.0024960041046143,-2.98,-2.46,0.65,3.91
2.0048089027404785,-2.98,-1.35,0.11,3.27
2.00874400138855,-3.0,-0.46,-0.25,3.04
2.0129928588867188,-2.61,0.04,-0.02,2.61
2.0717878341674805,-1.99,0.34,-0.28,2.03
2.074422836303711,-1.49,0.68,-0.6,1.74
2.0766868591308594,-0.95,1.37,-0.84,1.86
2.080566883087158,-0.73,2.03,-1.17,2.45
2.0835609436035156,-0.86,2.34,-1.04,2.7
2.0860958099365234,-1.08,2.35,-0.26,2.59
2.102463960647583,-1.36,2.35,0.75,2.81
2.1047210693359375,-1.53,2.53,1.18,3.18
2.1085920333862305,-1.87,2.8,0.8,3.46
2.112700939178467,-2.51,2.99,0.39,3.92
2.1704189777374268,-3.08,3.11,0.53,4.4
2.1732521057128906,-3.31,3.28,0.93,4.75
2.1755270957946777,-3.36,3.51,1.31,5.03
2.1792330741882324,-3.2,3.65,1.65,5.12
2.182034969329834,-2.6,3.63,1.81,4.81
2.1843838691711426,-1.66,3.51,1.75,4.25
2.188106060028076,-0.76,3.33,1.45,3.71
2.1921470165252686,-0.01,3.12,1.15,3.32
2.1963610649108887,0.7,2.85,0.97,3.09
2.200439929962158,1.38,2.7,0.8,3.13
2.257112979888916,1.87,2.64,0.61,3.29
2.260118007659912,2.04,2.53,0.25,3.25
2.2623958587646484,2.0,2.37,-0.11,3.1
2.266418933868408,1.98,2.17,-0.22,2.94
2.269282817840576,2.09,1.97,-0.07,2.87
2.2723469734191895,2.26,1.79,0.34,2.9
2.2761459350585938,2.43,1.8,0.78,3.12
2.2803001403808594,2.65,1.99,0.97,3.45
2.2834279537200928,2.84,2.23,0.93,3.72
2.2858970165252686,2.9,2.41,0.7,3.83
2.3560218811035156,2.86,2.51,0.51,3.83
2.358314037322998,2.77,2.67,0.55,3.88
2.36057710647583,2.6,2.86,0.56,3.9
2.3640799522399902,2.38,3.04,0.53,3.89
2.366755962371826,2.18,3.1,0.54,3.82
2.3702588081359863,2.14,3.04,0.58,3.76
2.3845889568328857,2.12,2.86,0.67,3.62
2.386996030807495,2.05,2.46,0.78,3.29
2.3903908729553223,1.94,1.93,0.96,2.9
2.3945069313049316,1.95,1.36,1.3,2.7
2.4538679122924805,2.17,0.88,1.66,2.87
2.4566450119018555,2.38,0.45,1.73,2.97
2.4589450359344482,2.37,0.05,1.39,2.74
2.462801933288574,2.04,-0.28,0.86,2.23
2.465662956237793,1.65,-0.58,0.57,1.83
2.4681060314178467,1.53,-0.82,0.41,1.78
2.471907138824463,1.64,-0.9,0.32,1.89
2.475947856903076,1.81,-0.76,0.07,1.96
2.478893995285034,2.58,-0.53,-0.3,2.65
2.483109951019287,3.61,-0.33,-0.53,3.66
2.539638042449951,3.77,-0.04,-0.21,3.77
2.5426299571990967,3.23,0.32,0.47,3.27
2.544893980026245,3.15,-0.25,1.12,3.35
2.5488128662109375,4.55,-2.63,2.25,5.71
2.551149845123291,6.39,-5.52,0.87,8.48
2.5550689697265625,-2.18,-8.22,-6.31,10.58
2.559109926223755,-20.69,-8.44,-6.69,23.32
2.5629470348358154,-27.72,-7.99,-1.9,28.91
2.5665290355682373,-17.13,-7.78,-0.37,18.81
2.5690698623657227,-6.78,-9.34,-7.41,13.71
2.6273131370544434,-5.21,-17.16,-5.69,18.81
2.630326986312866,-1.34,-20.49,8.95,22.39
2.632612943649292,8.67,-10.48,23.66,27.29
2.6350319385528564,10.6,1.72,18.47,21.36
2.6514599323272705,4.43,9.68,-3.0,11.06
2.6538569927215576,2.16,13.53,-18.46,22.98
2.6575069427490234,5.24,12.76,-19.01,23.48
2.6616010665893555,9.36,8.65,-10.72,16.65
2.6656229496002197,10.24,3.29,-4.09,11.5
2.6679301261901855,8.4,-2.01,-2.08,8.88
2.6717000007629395,5.73,-5.92,0.57,8.25
2.7299489974975586,2.35,-7.32,3.4,8.4
2.7337350845336914,-1.7,-6.15,3.44,7.24
2.736194133758545,-4.38,-3.52,1.34,5.77
2.7398128509521484,-4.83,-0.46,0.5,4.87
2.743849992752075,-3.17,1.72,1.65,3.96
2.74790096282959,-0.88,2.19,1.66,2.88
2.7505509853363037,0.32,1.7,0.19,1.74
2.7527451515197754,0.96,0.65,-1.08,1.58
2.768178939819336,1.44,-0.28,-1.67,2.22
2.7705090045928955,1.69,-0.64,-1.61,2.42
2.8285298347473145,1.57,-0.39,-1.67,2.32
2.831735134124756,1.07,-0.09,-1.25,1.64
2.834005832672119,-0.17,0.13,-0.73,0.76
2.8365650177001953,-1.72,0.21,-0.34,1.76
2.8526499271392822,-3.02,0.25,0.02,3.03
2.8550620079040527,-3.81,0.08,0.32,3.82
2.858583927154541,-4.26,-0.13,0.43,4.28
2.8626489639282227,-4.48,-0.36,0.45,4.51
2.866111993789673,-4.44,-0.53,0.27,4.47
2.868705987930298,-3.65,-0.63,0.0,3.7
2.927248001098633,-2.31,-0.85,0.35,2.48
2.9302358627319336,-1.18,-1.1,1.23,2.02
2.9328408241271973,-0.85,-1.15,1.52,2.08
2.9353561401367188,-1.01,-0.77,1.05,1.64
2.939340114593506,-1.09,-0.4,0.28,1.19
2.943403959274292,-1.44,-0.51,0.15,1.53
2.94753098487854,-2.28,-0.77,0.5,2.45
2.9512879848480225,-2.8,-0.61,-0.39,2.89
2.9535160064697266,-2.87,-0.24,-0.96,3.03
2.9679160118103027,-2.77,-0.37,-0.02,2.79
3.025301933288574,-2.7,-0.88,1.16,3.06
3.028264045715332,-2.47,-1.41,1.38,3.16
3.030606985092163,-2.92,-2.08,1.7,3.96
3.034148931503296,-3.91,-2.03,2.0,4.83
3.0370588302612305,-3.43,-0.5,0.1,3.46
3.052582025527954,-1.22,1.73,-1.63,2.67
3.0549910068511963,0.8,2.91,-1.16,3.23
3.0590620040893555,1.26,2.23,0.05,2.56
3.0631351470947266,0.79,0.43,-1.92,2.12
3.066105842590332,-0.17,-2.67,-2.04,3.36
3.1230368614196777,-1.44,-6.59,0.7,6.78
3.1259520053863525,-2.5,-8.85,1.93,9.39
3.128201961517334,-1.85,-7.82,1.06,8.1
3.132056951522827,-0.49,-5.6,1.01,5.71
3.134408950805664,-1.05,-5.53,1.83,5.91
3.1384329795837402,-3.49,-8.1,2.79,9.25
3.142496109008789,-4.87,-11.14,3.01,12.52
3.1454010009765625,-5.0,-14.19,2.8,15.3
3.1493799686431885,-4.96,-16.95,2.6,17.85
3.151824951171875,-4.2,-17.56,1.25,18.09
3.2106738090515137,-2.09,-14.98,1.25,15.17
3.213758945465088,-0.62,-10.91,1.26,11.0
3.216156005859375,-0.71,-7.47,1.28,7.61
3.2185730934143066,-1.3,-4.43,1.0,4.72
3.221609115600586,-1.56,0.23,-0.3,1.6
3.225661039352417,-2.61,6.16,-3.69,7.64
3.229775905609131,-5.39,12.14,-6.27,14.68
3.2339329719543457,-6.41,16.91,-6.48,19.21
3.236325979232788,-5.37,16.08,-4.19,17.46
3.2396469116210938,-2.12,8.53,2.02,9.01
3.2988691329956055,0.52,3.34,2.83,4.4
3.302243947982788,-0.01,1.85,0.42,1.89
3.304492950439453,-2.66,1.96,-1.06,3.46
3.307961940765381,-5.08,3.26,-0.32,6.04
3.3120241165161133,-6.65,5.03,1.0,8.39
3.3161168098449707,-7.33,6.73,1.01,10.0
3.318547010421753,-7.58,8.53,-0.05,11.41
3.3222129344940186,-7.59,9.97,-0.42,12.53
3.326219081878662,-6.77,10.41,-0.07,12.41
3.3303399085998535,-5.32,9.6,0.65,10.99
3.388482093811035,-4.0,8.16,1.51,9.21
3.391693115234375,-2.7,6.7,1.87,7.46
3.3939449787139893,-1.45,5.57,1.47,5.94
3.397778034210205,-0.19,4.87,1.02,4.97
3.40071702003479,0.77,4.63,0.94,4.78
3.403365135192871,1.44,4.67,1.52,5.11
3.4193480014801025,2.35,4.53,2.11,5.52
3.4216718673706055,3.62,3.86,2.23,5.74
3.425532817840576,5.25,2.35,1.74,6.0
3.4295921325683594,6.77,0.01,1.0,6.84
3.43227481842041,7.62,-2.42,0.08,7.99
3.489125967025757,7.56,-3.51,-0.32,8.34
3.492143154144287,6.27,-2.15,0.28,6.63
3.494381904602051,5.3,-0.32,0.43,5.32
3.498086929321289,5.77,0.0,-0.43,5.78
3.501796007156372,6.57,-0.55,-1.72,6.81
3.503908157348633,6.54,-0.55,-3.29,7.34
3.518286943435669,6.17,0.3,-4.12,7.42
3.5206351280212402,5.79,1.61,-3.88,7.15
3.5244951248168945,5.49,2.77,-3.18,6.92
3.528528928756714,5.13,3.5,-1.86,6.48
3.5880818367004395,4.33,3.46,-0.54,5.56
3.5909500122070312,3.63,2.39,0.31,4.35
3.5931968688964844,3.31,0.79,0.25,3.41
3.596987009048462,3.51,-0.94,-0.6,3.68
3.600580930709839,3.62,-2.19,-1.87,4.62
3.6034531593322754,2.91,-2.37,-2.53,4.52
3.60652494430542,1.5,-1.47,-2.63,3.36
3.6105761528015137,0.78,-2.3,-0.88,2.58
3.6146249771118164,3.7,-7.97,2.27,9.07
3.6175010204315186,-0.04,-15.79,-9.07,18.2
3.674543857574463,-22.63,-15.23,-10.42,29.2
3.677474021911621,-34.37,-12.08,7.35,37.16
3.6798160076141357,-23.73,-7.54,3.17,25.1
3.68393611907959,-12.32,-12.09,-3.45,17.6
3.6867549419403076,-6.83,-27.2,2.19,28.12
3.689816951751709,1.59,-25.79,16.11,30.44
3.6924901008605957,11.66,-6.28,17.98,22.33
3.6951770782470703,15.3,7.55,-0.31,17.06
3.6991658210754395,11.16,15.42,-11.7,22.34
3.7016830444335938,8.02,16.59,-16.1,24.46
3.760270118713379,8.71,15.33,-15.47,23.45
3.7632241249084473,9.64,10.97,-10.66,18.08
3.7654590606689453,9.68,2.67,-4.44,10.97
3.7678050994873047,8.43,-4.48,0.59,9.56
3.771476984024048,5.9,-10.37,2.48,12.18
3.7754111289978027,2.06,-12.98,1.94,13.28
3.7795119285583496,-2.62,-10.86,2.78,11.51
3.783687114715576,-6.74,-5.4,3.56,9.34
3.7865450382232666,-8.6,-0.74,1.87,8.83
3.7906460762023926,-7.79,2.24,0.83,8.14
3.8500781059265137,-4.66,4.11,-0.5,6.23
3.852994918823242,-1.52,4.92,-1.2,5.28
3.855195999145508,0.48,4.4,-0.87,4.51
3.8589730262756348,1.61,3.0,-0.9,3.52
3.8630428314208984,1.83,0.64,-0.46,1.99
3.8658270835876465,1.97,-1.36,-0.24,2.4
3.868077039718628,1.61,-2.4,0.14,2.89
3.871151924133301,-0.04,-2.78,1.11,2.99
3.875051975250244,-2.1,-1.91,1.0,3.0
3.879110813140869,-3.71,-0.43,0.25,3.74
3.9383699893951416,-4.76,0.76,0.55,4.85
3.940915107727051,-5.17,1.09,1.56,5.5
3.943392038345337,-4.7,1.16,1.19,4.98
3.947329044342041,-3.48,0.85,0.22,3.58
3.9510631561279297,-2.81,-0.28,-0.03,2.82
3.953680992126465,-3.34,-2.06,-0.08,3.92
3.9577698707580566,-3.83,-3.2,-0.96,5.08
3.9617080688476562,-2.58,-3.17,-1.58,4.38
3.9657859802246094,-0.64,-2.26,-1.19,2.63
3.968169927597046,0.07,-1.81,0.01,1.81
4.027381896972656,-0.49,-1.28,0.36,1.41
4.030424118041992,-0.79,-0.29,-0.27,0.88
4.0327229499816895,-0.26,0.09,0.18,0.32
4.0350799560546875,-0.58,-1.44,1.77,2.35
4.038480997085571,-2.25,-2.9,1.63,4.01
4.042541980743408,-3.01,-2.72,0.2,4.06
4.046586990356445,-2.14,-2.29,0.01,3.13
4.050775051116943,-1.23,-3.24,0.59,3.51
4.053117990493774,-1.33,-5.44,1.46,5.78
4.056406021118164,-1.18,-7.89,1.88,8.19
4.115954875946045,-0.36,-10.15,1.75,10.3
4.118924140930176,0.06,-12.32,1.7,12.43
4.121147155761719,-0.37,-13.89,1.96,14.03
4.124845027923584,-2.37,-13.08,2.17,13.46
4.128933906555176,-4.58,-9.26,1.41,10.42
4.132970809936523,-5.17,-5.33,0.65,7.45
4.1352269649505615,-4.53,-2.79,-0.19,5.32
4.139021873474121,-4.44,-1.23,-0.42,4.62
4.143056869506836,-4.85,0.52,-0.82,4.94
4.147205829620361,-4.8,2.44,-0.89,5.45
4.150827884674072,-4.71,3.7,-0.96,6.06
4.208791017532349,-5.15,4.5,-1.03,6.91
4.211699962615967,-5.5,5.16,-0.15,7.54
4.2140679359436035,-5.07,6.45,-0.08,8.2
4.217859983444214,-3.68,8.17,-1.54,9.09
4.220667839050293,-1.9,9.25,-3.49,10.06
4.223567008972168,0.0,8.44,-4.09,9.37
4.227703094482422,0.77,5.96,-2.61,6.55
4.2317869663238525,0.86,3.85,-0.07,3.94
4.2356181144714355,0.93,2.65,1.19,3.05
4.237818956375122,0.33,2.21,0.78,2.36
4.307155132293701,-0.68,2.53,-0.03,2.61
4.3096699714660645,-1.61,3.3,-0.69,3.73
4.311960935592651,-2.47,4.16,-0.49,4.86
4.315793991088867,-3.09,4.83,0.57,5.76
4.3195459842681885,-3.47,5.15,2.05,6.53
4.321765899658203,-3.38,4.96,3.21,6.8
4.336396932601929,-2.84,4.05,3.43,6.01
4.338776111602783,-2.02,2.93,2.5,4.34
4.342111110687256,-1.05,2.04,1.25,2.61
4.3461761474609375,0.05,1.51,0.2,1.52
4.405796051025391,1.48,1.03,-0.68,1.92
4.408344984054565,3.13,0.59,-1.53,3.53
4.41083288192749,4.74,0.35,-2.31,5.28
4.415020942687988,6.05,0.52,-2.89,6.72
4.418003082275391,7.09,0.9,-3.59,7.99
4.420491933822632,7.88,1.56,-4.25,9.08
4.436130046844482,8.53,2.35,-4.94,10.13
4.438650131225586,9.12,3.06,-5.67,11.16
4.441956996917725,8.89,3.78,-6.26,11.51
4.445980072021484,7.72,4.3,-6.47,10.95
4.505537986755371,6.46,4.25,-6.06,9.82
4.5079779624938965,5.42,3.71,-5.25,8.4
4.511616945266724,4.45,3.09,-3.63,6.52
4.515634059906006,3.91,2.25,-1.81,4.86
4.519263982772827,3.78,1.37,0.02,4.02
4.521471977233887,3.98,0.4,1.27,4.19
4.53725004196167,4.12,-0.73,1.21,4.35
4.539834976196289,3.98,-1.69,0.25,4.33
4.5439770221710205,3.6,-1.87,-0.81,4.13
4.548022985458374,3.37,-1.04,-1.51,3.83
4.6057538986206055,3.61,0.06,-1.81,4.03
4.608150005340576,3.33,-0.64,-0.94,3.51
4.61175012588501,3.85,-5.83,0.44,7.0
4.61588191986084,-0.57,-14.53,-0.56,14.55
4.619577884674072,-21.73,-17.38,-0.68,27.83
4.621841907501221,-34.44,-16.59,9.55,39.4
4.636293888092041,-28.59,-10.68,1.91,30.57
4.638763904571533,-13.06,-4.64,4.1,14.45
4.641912937164307,1.51,-0.4,10.44,10.55
4.645962953567505,11.95,5.04,3.2,13.35
4.7050089836120605,12.43,4.56,-17.21,21.71
4.707567930221558,3.54,-6.05,-17.86,19.18
4.711114883422852,-0.76,-26.32,2.54,26.45
4.7152910232543945,10.86,-26.08,16.29,32.61
4.718292951583862,15.95,-4.22,9.58,19.07
4.720765113830566,6.62,6.36,-2.99,9.65
4.736256122589111,-0.2,9.8,-9.68,13.77
4.738678932189941,-0.97,10.57,-9.9,14.51
4.742856025695801,1.08,9.83,-6.1,11.61
4.746938943862915,1.98,7.42,-2.01,7.93
4.806057929992676,1.94,3.83,-0.1,4.29
4.808631896972656,1.89,-0.59,0.53,2.04
4.810865879058838,2.24,-4.88,-0.4,5.38
4.81476092338562,3.08,-7.04,-0.54,7.7
4.81818699836731,2.92,-6.41,0.7,7.07
4.820919036865234,1.1,-3.54,0.96,3.82
4.839730978012085,-1.45,-0.8,0.9,1.88
4.842226982116699,-3.51,1.07,1.05,3.81
4.845779895782471,-4.74,1.64,1.15,5.14
4.849686145782471,-5.12,1.06,0.66,5.27
4.90798282623291,-4.62,0.09,0.48,4.64
4.911095142364502,-3.62,-0.53,0.64,3.71
4.913390159606934,-2.16,-0.4,0.66,2.29
4.9179229736328125,-1.13,0.02,0.64,1.29
4.921047925949097,-1.14,0.11,0.87,1.43
4.925151824951172,-2.12,-0.37,0.8,2.29
4.929203987121582,-3.45,-1.51,0.68,3.82
4.93333101272583,-4.69,-2.99,0.66,5.6
4.935631036758423,-5.65,-4.41,1.29,7.28
4.93939208984375,-5.73,-5.04,1.71,7.82
4.943305015563965,-4.16,-3.23,1.17,5.39
5.002254962921143,-1.05,0.34,0.21,1.12
5.005254030227661,1.06,3.5,-0.11,3.65
5.00747013092041,0.94,4.18,0.1,4.28
5.011166095733643,-1.21,1.49,-1.21,2.26
5.015322923660278,-3.71,-3.11,-0.94,4.93
5.019144058227539,-4.87,-7.51,0.05,8.95
5.021454811096191,-4.19,-9.79,0.22,10.65
5.03717303276062,-1.54,-9.01,-0.47,9.15
5.039714813232422,0.28,-6.27,-0.39,6.28
5.043821811676025,-0.27,-4.55,0.08,4.55
5.10448694229126,-2.38,-5.21,0.61,5.76
5.1074748039245605,-4.2,-7.64,2.0,8.94
5.109691143035889,-5.32,-10.09,2.99,11.79
5.113417148590088,-5.42,-11.15,2.2,12.59
5.117602825164795,-4.42,-11.15,1.82,12.13
5.119762897491455,-3.75,-10.05,1.73,10.86
5.123560905456543,-3.65,-7.82,1.15,8.7
5.127619028091431,-4.43,-5.37,0.94,7.02
5.131623983383179,-5.24,-3.13,1.34,6.24
5.13483190536499,-5.51,-1.35,1.71,5.92
5.192905902862549,-5.57,0.52,1.25,5.73
5.1959428787231445,-5.84,2.56,-0.55,6.4
5.198296070098877,-7.22,4.02,-2.28,8.57
5.201792001724243,-8.56,5.22,-4.0,10.79
5.204300880432129,-8.47,7.22,-6.57,12.92
5.219743967056274,-6.59,8.19,-6.65,12.43
5.222172021865845,-2.19,6.37,-3.88,7.77
5.225586891174316,2.66,3.63,-1.17,4.64
5.229700088500977,4.89,2.02,0.12,5.29
5.233676910400391,4.03,1.67,-0.38,4.37
5.291894912719727,1.5,2.04,-1.84,3.13
5.294806957244873,-0.71,2.85,-2.21,3.67
5.297106981277466,-2.21,3.76,-1.32,4.55
5.301456928253174,-3.53,4.58,-0.01,5.78
5.304363965988159,-4.78,4.86,1.02,6.89
5.307362079620361,-5.55,4.68,1.57,7.42
5.310329914093018,-5.33,3.93,2.19,6.97
5.3144190311431885,-4.62,2.71,2.99,6.13
5.317994117736816,-3.78,1.12,3.82,5.48
5.320343971252441,-2.7,-0.66,4.32,5.13
5.380895137786865,-1.4,-2.24,3.77,4.6
5.384649991989136,0.04,-3.29,2.58,4.18
5.387315988540649,1.16,-3.51,1.31,3.92
5.390506029129028,1.76,-3.39,0.4,3.84
5.394567012786865,2.32,-3.53,-0.3,4.23
5.398672103881836,3.41,-3.57,-0.73,4.99
5.401670932769775,5.26,-3.66,-1.4,6.55
5.40393590927124,7.14,-3.68,-2.65,8.45
5.419218063354492,7.42,-2.3,-4.14,8.8
5.4215309619903564,6.6,-0.01,-5.47,8.57
5.481441020965576,5.72,1.97,-6.6,8.95
5.484490871429443,5.6,3.11,-6.42,9.06
5.4873738288879395,6.11,3.86,-5.24,8.92
5.490387916564941,6.82,4.01,-3.07,8.48
5.4944658279418945,7.44,3.64,-0.65,8.3
5.498625993728638,7.49,3.19,1.07,8.21
5.501600980758667,6.35,2.64,0.96,6.94
5.503783941268921,5.02,1.49,-0.3,5.24
5.519363880157471,3.12,0.72,-1.49,3.53
5.52169394493103,1.47,0.14,-2.51,2.91
5.5813751220703125,0.93,0.26,-2.6,2.77
5.584383964538574,1.5,0.28,-1.83,2.38
5.587079048156738,2.21,0.63,-1.28,2.63
5.5903849601745605,2.54,1.31,-0.68,2.93
5.594341039657593,2.43,1.87,-0.02,3.06
5.598455905914307,3.48,1.44,0.8,3.85
5.601752996444702,7.83,-0.49,3.46,8.57
5.604107856750488,14.35,-5.66,-16.32,22.45
5.6199951171875,2.9,-10.89,-32.43,34.33
5.622421979904175,-13.06,-18.3,6.28,23.34
5.682546138763428,-18.23,-12.43,-0.58,22.07
5.68559193611145,-12.43,-0.74,2.25,12.65
5.687839031219482,-0.47,2.32,6.68,7.08
5.691524028778076,10.65,1.7,6.48,12.58
5.695544004440308,11.7,-6.08,1.51,13.27
5.699505805969238,3.17,-21.52,1.12,21.78
5.703181028366089,-2.13,-26.04,8.11,27.35
5.705451011657715,0.17,-12.3,7.34,14.32
5.720088958740234,2.6,0.39,-0.31,2.64
5.722501993179321,3.88,5.04,-10.5,12.27
5.726125955581665,6.69,6.58,-11.86,15.12
5.7877020835876465,10.54,7.66,-8.73,15.68
5.790699005126953,13.08,8.98,-6.24,17.04
5.792914867401123,12.64,8.14,-3.87,15.52
5.796802043914795,9.7,4.89,-3.55,11.42
5.801440000534058,6.21,1.67,-2.12,6.77
5.803730010986328,3.4,-0.7,0.32,3.48
5.807506084442139,1.23,-2.15,0.07,2.47
5.811564922332764,-1.0,-2.66,-0.1,2.84
5.815685033798218,-3.7,-2.72,0.8,4.66
5.819354057312012,-6.07,-2.55,0.25,6.58
5.879518032073975,-7.33,-2.27,-0.05,7.67
5.882633924484253,-7.19,-1.86,1.01,7.49
5.885058879852295,-5.92,-1.1,1.62,6.23
5.887895107269287,-4.44,0.0,1.11,4.57
5.9037909507751465,-3.45,1.05,0.65,3.66
5.906360149383545,-2.64,1.71,0.88,3.26
5.9098060131073,-1.52,1.95,0.8,2.59
5.913847923278809,-0.32,1.84,0.61,1.96
5.916921138763428,0.73,1.43,0.47,1.67
5.919240951538086,0.85,0.64,0.9,1.39
5.983046054840088,-0.47,0.25,0.69,0.87
5.985994815826416,-2.09,0.04,0.06,2.09
5.98826789855957,-3.9,-0.27,-1.23,4.09
5.991956949234009,-5.27,-0.78,-1.93,5.66
5.996124982833862,-5.7,-1.38,-1.98,6.18
6.000170946121216,-4.65,-2.16,-2.12,5.54
6.002565860748291,-2.79,-3.02,-1.3,4.31
6.0066938400268555,-0.73,-4.21,-0.35,4.28
6.010779857635498,0.33,-5.22,0.32,5.24
6.014837026596069,-0.46,-5.6,0.9,5.69
6.076601028442383,-2.45,-5.21,1.11,5.86
6.079050064086914,-4.43,-4.76,1.37,6.64
6.082703113555908,-5.81,-4.88,1.74,7.78
6.086264133453369,-6.31,-5.83,1.65,8.74
6.088586807250977,-6.15,-7.49,1.2,9.76
6.103856086730957,-5.62,-9.61,0.15,11.13
6.106258869171143,-5.2,-12.06,-0.94,13.16
6.109796047210693,-5.42,-14.41,-2.1,15.53
6.1138811111450195,-7.48,-15.79,-2.22,17.61
6.118145942687988,-9.94,-15.23,-2.32,18.33
6.1789398193359375,-11.71,-13.07,-2.22,17.68
6.182170867919922,-12.84,-10.49,-3.12,16.87
6.1845479011535645,-12.9,-7.88,-3.82,15.59
6.186891078948975,-11.68,-5.95,-2.93,13.43
6.204722881317139,-9.32,-5.01,-1.68,10.71
6.207189083099365,-6.85,-4.93,-0.29,8.44
6.211350917816162,-5.09,-5.09,-0.68,7.23
6.214254856109619,-4.08,-4.67,-2.75,6.78
6.218233108520508,-3.47,-3.78,-4.59,6.88
6.220875024795532,-3.06,-2.51,-6.43,7.55
6.283190011978149,-2.84,-0.93,-7.2,7.79
6.286395072937012,-2.43,0.3,-6.85,7.27
6.288608074188232,-2.33,1.08,-5.25,5.84
6.292571067810059,-2.5,1.85,-3.22,4.47
6.2966461181640625,-2.74,2.76,-2.42,4.58
6.300612926483154,-3.33,3.81,-3.25,6.01
6.302907943725586,-4.26,4.74,-5.21,8.23
6.306615829467773,-4.78,5.04,-7.12,9.94
6.310638904571533,-4.4,4.74,-7.7,10.05
6.314742088317871,-3.49,4.31,-6.43,8.49
6.378979921340942,-2.66,4.03,-4.32,6.47
6.38150691986084,-2.26,3.89,-2.86,5.33
6.3852410316467285,-2.34,3.88,-2.75,5.3
6.388437032699585,-2.66,3.88,-3.5,5.86
6.390813827514648,-2.79,3.88,-4.07,6.27
6.393465042114258,-2.82,3.91,-3.98,6.25
6.396363973617554,-2.61,3.87,-3.38,5.76
6.400377035140991,-2.13,3.74,-2.82,5.14
6.403081893920898,-1.47,3.41,-2.73,4.6
6.407127857208252,-0.65,2.8,-3.25,4.33
6.470688819885254,0.08,2.03,-4.11,4.58
6.4736409187316895,0.91,1.17,-4.74,4.96
6.475934982299805,1.93,0.2,-5.06,5.41
6.479637145996094,3.11,-0.72,-5.31,6.19
6.483738899230957,4.35,-1.76,-5.85,7.49
6.487659931182861,5.17,-2.76,-6.52,8.76
6.490056037902832,5.25,-3.4,-6.88,9.29
6.5048909187316895,4.53,-3.43,-6.49,8.62
6.507285118103027,3.52,-3.11,-5.72,7.4
6.511073112487793,3.36,-3.41,-5.18,7.05
6.515081882476807,4.25,-4.57,-6.29,8.86
6.580166816711426,6.37,-5.92,-8.95,12.47
6.582726001739502,7.17,-6.04,-11.99,15.22
6.585561037063599,6.39,-4.31,-11.98,14.24
6.588447093963623,6.74,-1.7,-10.16,12.31
6.604947090148926,8.06,1.06,-8.13,11.49
6.607359886169434,9.8,3.18,-6.68,12.27
6.611076831817627,11.64,4.26,-6.1,13.81
6.615086078643799,13.11,3.75,-7.06,15.35
6.618920803070068,13.01,0.79,-8.89,15.77
6.621206998825073,9.42,-4.13,-6.01,11.91
6.684491157531738,4.15,-9.74,1.79,10.73
6.687443017959595,3.67,-14.31,9.48,17.55
6.689754962921143,2.99,-12.95,9.06,16.08
6.693398952484131,-2.33,-6.66,1.4,7.19
6.697345972061157,-5.18,-1.09,-2.16,5.71
6.700230121612549,-3.7,2.81,-3.93,6.08
6.703157901763916,-1.04,6.06,-4.12,7.4
6.705511093139648,1.26,8.3,-2.68,8.81
6.72243595123291,2.51,7.97,-2.66,8.76
6.724958896636963,3.8,4.92,-4.92,7.92
6.787838935852051,5.79,0.89,-5.67,8.15
6.790985107421875,7.27,-2.29,-2.79,8.11
6.79321813583374,6.9,-3.69,0.23,7.82
6.796934127807617,4.37,-3.19,-0.01,5.41
6.801713943481445,1.34,-1.82,-1.56,2.74
6.804295063018799,-1.04,-0.14,-1.43,1.77
6.80841588973999,-2.02,0.95,0.0,2.23
6.812211036682129,-2.02,1.22,0.83,2.5
6.8149518966674805,-1.7,0.92,0.62,2.02
6.818665027618408,-1.11,0.45,0.05,1.19
6.880973815917969,-0.23,-0.18,-0.08,0.3
6.883957862854004,0.72,-0.68,-0.21,1.01
6.886268138885498,1.42,-0.88,-0.38,1.71
6.890269994735718,1.7,-0.64,-0.64,1.92
6.893314838409424,1.55,-0.18,-0.82,1.76
6.897336959838867,1.05,0.19,-0.8,1.33
6.901819944381714,0.58,0.23,-0.81,1.02
6.904083013534546,0.28,0.03,-0.69,0.74
6.907773017883301,-0.01,-0.08,-0.64,0.64
6.911793947219849,-0.68,-0.16,-0.78,1.04
6.974721908569336,-1.22,-0.15,-0.58,1.35
6.977717876434326,-1.78,-0.56,0.12,1.86
6.979954957962036,-2.5,-0.94,0.2,2.67
6.986587047576904,-2.86,-1.32,0.0,3.14
6.98893404006958,-2.78,-1.38,0.02,3.1
6.992621898651123,-2.27,-1.28,0.35,2.62
6.99541711807251,-1.69,-0.92,0.46,1.97
6.999470949172974,-1.41,-0.6,0.09,1.53
7.002408981323242,-1.63,-0.46,-0.2,1.7
7.0046820640563965,-1.91,-0.28,-0.46,1.98
7.078143119812012,-2.03,-0.39,-0.5,2.12
7.080606937408447,-2.16,-0.7,-0.33,2.29
7.082978963851929,-2.39,-1.34,-0.17,2.74
7.085782051086426,-2.63,-2.13,-0.04,3.38
7.089076995849609,-3.22,-3.05,0.21,4.44
7.092828989028931,-4.39,-4.23,0.21,6.09
7.095552921295166,-6.01,-5.64,0.39,8.25
7.098588943481445,-7.27,-7.08,0.66,10.16
7.102118015289307,-7.77,-9.08,1.28,12.01
7.104562997817993,-7.58,-12.83,1.14,14.94
7.16628098487854,-7.44,-18.42,0.58,19.87
7.169361114501953,-7.76,-21.66,0.77,23.02
7.171798944473267,-7.15,-18.08,0.87,19.46
7.175040006637573,-5.78,-11.27,1.03,12.7
7.179141044616699,-5.04,-6.29,0.98,8.11
7.183316946029663,-4.86,-3.75,1.41,6.29
7.186197996139526,-4.25,-2.35,1.14,4.98
7.188524961471558,-3.16,-1.94,0.22,3.71
7.203824996948242,-2.48,-1.85,-1.84,3.59
7.20619797706604,-2.75,-0.25,-4.86,5.58
7.267983913421631,-3.21,2.26,-6.72,7.78
7.270931959152222,-3.07,4.16,-7.85,9.39
7.2732038497924805,-1.89,5.34,-8.14,9.91
7.276968955993652,0.07,6.03,-6.63,8.96
7.280981063842773,2.2,6.69,-4.22,8.21
7.285529136657715,3.78,7.25,-3.35,8.83
7.287948131561279,4.03,7.02,-4.02,9.03
7.291586875915527,2.89,6.2,-5.04,8.49
7.295732021331787,0.76,5.66,-4.94,7.55
7.299943923950195,-1.18,5.87,-3.51,6.94
7.303579807281494,-2.65,6.47,-1.73,7.2
7.3644280433654785,-3.86,7.1,-0.81,8.12
7.367466926574707,-5.05,7.68,-0.7,9.21
7.369755983352661,-6.0,7.91,-0.62,9.94
7.373898983001709,-6.27,7.96,-0.27,10.13
7.377926826477051,-5.77,7.72,0.46,9.64
7.381994009017944,-4.89,7.27,0.93,8.81
7.385899066925049,-3.98,6.57,0.97,7.74
7.388185024261475,-3.11,5.64,0.65,6.47
7.391790866851807,-2.33,4.77,0.26,5.31
7.3958899974823,-1.48,4.03,-0.32,4.3
7.457592010498047,-0.28,3.43,-0.97,3.57
7.460582971572876,1.18,3.1,-1.73,3.74
7.462788105010986,2.8,3.06,-2.33,4.75
7.470202922821045,4.27,3.16,-3.02,6.11
7.472498893737793,5.3,3.33,-3.41,7.12
7.4762890338897705,5.97,3.45,-3.68,7.81
7.480433940887451,6.23,3.37,-3.73,8.0
7.4843621253967285,6.06,3.21,-3.62,7.75
7.486693859100342,5.6,3.08,-3.38,7.22
7.490216016769409,5.27,3.02,-3.18,6.85
7.552567005157471,5.69,2.89,-3.34,7.2
7.555490016937256,6.34,2.57,-3.99,7.91
7.557718992233276,6.5,2.36,-4.7,8.36
7.561429977416992,6.28,2.39,-4.79,8.25
7.565448999404907,6.18,2.53,-4.08,7.82
7.5691750049591064,6.26,2.58,-3.01,7.4
7.5720930099487305,6.17,2.49,-2.34,7.05
7.574905872344971,6.19,2.03,-1.83,6.76
7.578995943069458,5.86,1.43,-1.31,6.17
7.582963943481445,4.92,0.83,-1.14,5.11
7.643604040145874,4.35,-0.08,-1.55,4.61
7.646223068237305,3.75,-0.87,-2.17,4.41
7.648738861083984,3.14,-0.84,-2.63,4.18
7.652390003204346,2.93,-0.04,-2.85,4.08
7.655054092407227,3.61,0.95,-2.67,4.58
7.658300876617432,4.48,1.53,-1.71,5.03
7.6623969078063965,4.25,1.04,-0.45,4.39
7.666399002075195,3.28,-2.4,1.96,4.51
7.670037031173706,4.83,-10.9,2.73,12.23
7.672250986099243,-8.72,-16.81,-6.27,19.94
7.744436025619507,-30.27,-14.86,-0.98,33.73
7.747125148773193,-27.35,-7.97,7.55,29.47
7.749397039413452,-8.04,1.0,3.92,9.0
7.752726078033447,4.59,6.44,-3.54,8.66
7.755349159240723,1.19,-4.07,-6.69,7.92
7.759191036224365,-11.13,-39.16,-7.58,41.41
7.763289928436279,-12.82,-43.45,14.08,47.43
7.767390012741089,8.09,-7.07,20.07,22.76
7.77115797996521,17.19,8.78,6.42,20.34
7.773360967636108,12.85,15.94,-7.47,21.79
7.8465659618377686,5.93,17.28,-16.22,24.43
7.84923791885376,1.58,12.12,-13.45,18.17
7.85154914855957,3.01,7.3,-6.87,10.46
7.8545050621032715,6.91,2.62,-3.9,8.35
7.858528137207031,8.59,-1.12,-2.69,9.07
7.862515926361084,8.0,-3.66,-1.04,8.85
7.866585969924927,5.3,-4.76,0.18,7.12
7.869657039642334,1.46,-3.54,-0.55,3.86
7.871884822845459,-2.21,-1.91,-0.19,2.92
7.886857986450195,-4.68,-1.05,1.08,4.91
7.947277069091797,-5.38,-0.72,1.56,5.64
7.950277805328369,-4.65,-0.56,1.61,4.95
7.952579021453857,-3.35,-0.61,1.96,3.92
7.9551568031311035,-2.28,-1.06,1.76,3.06
7.970821857452393,-1.82,-1.51,1.06,2.59
7.97318696975708,-1.98,-1.79,0.52,2.71
7.976594924926758,-2.93,-1.59,-0.18,3.33
7.9807448387146,-3.52,-0.75,-0.73,3.67
7.9847731590271,-3.08,0.49,-1.14,3.32
7.9870381355285645,-2.27,1.65,-0.94,2.95
8.049417972564697,-1.94,1.81,-0.65,2.73
8.052583932876587,-2.22,0.49,-0.45,2.31
8.055256843566895,-3.09,-1.86,0.13,3.6
8.058522939682007,-4.08,-4.77,0.68,6.31
8.062588930130005,-5.32,-7.89,1.78,9.68
8.066484928131104,-5.82,-9.2,2.52,11.17
8.069530010223389,-4.57,-6.7,2.0,8.35
8.071728944778442,-1.94,-1.87,1.19,2.94
8.087265968322754,-0.16,2.13,0.77,2.27
8.089584827423096,-0.21,4.46,0.67,4.51
8.093502044677734,-1.48,4.37,-0.22,4.61
8.155736923217773,-3.03,1.81,-0.57,3.57
8.158709049224854,-3.77,-1.45,1.36,4.26
8.16091012954712,-2.63,-3.6,1.9,4.84
8.164566993713379,-0.82,-4.58,0.72,4.7
8.16919994354248,0.12,-5.95,0.67,5.98
8.171586990356445,-0.87,-8.59,1.33,8.73
8.17521595954895,-3.1,-11.1,0.46,11.53
8.179288864135742,-4.36,-11.73,-0.73,12.53
8.183372974395752,-4.26,-9.94,-1.15,10.87
8.18626594543457,-3.03,-6.53,-1.3,7.31
8.247100830078125,-1.97,-3.77,-1.28,4.44
8.250286102294922,-2.05,-1.47,-1.33,2.85
8.252588987350464,-2.95,1.0,-0.6,3.17
8.255095958709717,-3.44,3.35,-0.11,4.8
8.27134394645691,-3.95,5.54,-0.67,6.83
8.27376103401184,-5.4,6.75,0.11,8.64
8.277249813079834,-5.67,8.12,0.85,9.94
8.281325817108154,-3.78,10.52,-0.21,11.18
8.285839080810547,-2.32,11.64,-1.81,12.0
8.288107872009277,-1.23,9.88,-2.97,10.38
8.351055145263672,-0.47,6.99,-2.95,7.6
8.354010105133057,0.27,4.87,-1.98,5.26
8.35620903968811,1.41,3.5,-1.46,4.04
8.360010147094727,1.67,2.52,-0.6,3.08
8.362895965576172,0.72,2.3,0.44,2.44
8.367015838623047,-0.46,2.96,1.16,3.21
8.37064003944397,-1.74,4.08,1.91,4.82
8.372852802276611,-3.08,4.82,2.7,6.32
8.388980865478516,-4.18,4.87,3.61,7.36
8.391394138336182,-4.53,4.32,4.21,7.54
8.454917907714844,-4.04,3.33,4.14,6.67
8.457912921905518,-3.13,2.44,3.45,5.25
8.460129022598267,-2.27,1.88,2.62,3.94
8.463841915130615,-1.14,1.45,2.09,2.78
8.466840982437134,0.75,1.18,1.78,2.26
8.470587015151978,3.34,0.84,1.27,3.67
8.472785949707031,6.13,0.28,0.26,6.14
8.488263130187988,8.36,-0.19,-0.9,8.41
8.49061107635498,9.2,-0.1,-1.57,9.33
8.494189977645874,8.88,0.39,-1.96,9.1
8.558470964431763,8.54,0.63,-2.35,8.87
8.56146502494812,8.64,0.73,-2.71,9.08
8.563682079315186,8.48,0.96,-3.2,9.11
8.567357063293457,7.38,1.63,-4.14,8.61
8.570948123931885,5.96,2.46,-5.19,8.27
8.573144912719727,5.26,2.76,-5.99,8.43
8.589066982269287,5.23,2.58,-5.29,7.87
8.591583967208862,5.33,2.1,-3.65,6.79
8.595680952072144,5.59,1.41,-2.0,6.1
8.599583148956299,5.84,0.62,-0.67,5.91
8.663174152374268,5.77,-0.14,-0.05,5.77
8.665616035461426,5.41,-0.84,-0.35,5.48
8.669344902038574,4.61,-1.25,-1.18,4.92
8.671787023544312,3.67,-1.29,-1.76,4.26
8.675469875335693,2.71,-0.86,-1.68,3.3
8.679511070251465,1.75,-0.31,-1.01,2.04
8.683621883392334,0.91,-0.43,-0.03,1.0
8.68653392791748,0.28,-1.53,1.87,2.43
8.688952922821045,0.29,-5.01,4.41,6.68
8.703830003738403,-5.09,-10.26,1.01,11.49
8.766910076141357,-18.38,-12.26,-7.53,23.34
8.770717144012451,-27.39,-9.41,-2.42,29.06
8.773245811462402,-19.49,-3.72,-0.03,19.84
8.776378154754639,-5.86,1.13,0.87,6.03
8.780218124389648,2.12,3.99,2.95,5.39
8.78426194190979,2.85,3.01,-6.27,7.51
8.788082122802734,-2.98,-7.78,-14.97,17.13
8.790282964706421,-9.37,-31.17,-4.54,32.86
8.80351209640503,-0.95,-33.76,19.24,38.86
8.805805921554565,15.42,-8.71,24.93,30.58
8.871003150939941,15.86,4.09,4.76,17.05
8.873963832855225,7.48,8.69,-9.47,14.87
8.876194953918457,1.41,11.17,-11.12,15.82
8.879904985427856,0.28,11.08,-9.75,14.76
8.883944988250732,3.65,10.56,-9.22,14.48
8.88682508468628,6.62,7.44,-5.81,11.52
8.889179944992065,6.97,2.49,-1.33,7.51
8.905565977096558,5.53,-1.53,-0.74,5.78
8.907917976379395,3.39,-4.2,-1.78,5.68
8.911710023880005,1.61,-5.35,-0.96,5.66
8.91585111618042,-0.15,-5.06,0.78,5.12
8.981200933456421,-1.95,-4.1,1.37,4.74
8.984118938446045,-3.31,-2.33,1.27,4.24
8.986454010009766,-4.17,-0.27,1.63,4.48
8.989043951034546,-4.45,0.88,1.49,4.77
9.005924940109253,-3.91,0.65,1.05,4.1
9.008386135101318,-3.07,-0.41,0.45,3.12
9.011384010314941,-2.67,-1.3,0.61,3.03
9.015295028686523,-2.63,-1.48,0.67,3.09
9.019591808319092,-2.8,-0.6,0.16,2.86
9.021891117095947,-2.72,0.7,0.38,2.83
9.087924003601074,-2.37,1.54,0.72,2.91
9.090884923934937,-2.28,1.49,0.79,2.83
9.093101978302002,-2.82,0.35,0.61,2.9
9.096757888793945,-4.25,-1.49,0.03,4.5
9.100881099700928,-5.81,-3.09,0.04,6.58
9.103622913360596,-5.33,-3.25,-0.19,6.24
9.106070041656494,-2.24,-1.52,-0.81,2.82
9.122622966766357,0.82,0.83,-0.73,1.37
9.125034809112549,1.68,1.78,-0.8,2.57
9.129096984863281,0.4,0.46,-0.99,1.16
9.196340084075928,-1.49,-3.04,-1.0,3.53
9.199290037155151,-3.29,-7.15,1.13,7.95
9.201512813568115,-3.82,-9.04,2.72,10.18
9.20510482788086,-2.1,-7.21,1.42,7.64
9.208106994628906,-0.09,-3.04,1.23,3.28
9.212167978286743,0.51,0.13,1.62,1.7
9.216320037841797,-1.03,0.71,1.14,1.69
9.219558954238892,-3.04,-2.5,2.15,4.48
9.222384929656982,-3.95,-8.17,3.14,9.6
9.225592136383057,-3.9,-13.79,2.37,14.52
9.29249095916748,-2.31,-17.72,0.61,17.88
9.295538902282715,0.67,-17.58,0.89,17.61
9.297762870788574,2.88,-13.05,1.97,13.5
9.301568984985352,1.56,-7.75,1.83,8.11
9.30385684967041,-1.3,-4.04,2.03,4.7
9.306931972503662,-3.55,-1.08,2.61,4.53
9.310619831085205,-5.36,1.31,3.37,6.46
9.313623905181885,-6.59,3.34,2.22,7.71
9.316615104675293,-7.29,5.97,-0.14,9.42
9.320098876953125,-7.45,8.44,-2.65,11.56
9.387401103973389,-7.59,10.99,-4.24,14.01
9.390646934509277,-7.4,14.21,-6.81,17.4
9.392938137054443,-5.64,14.48,-5.39,16.44
9.396968841552734,-1.63,9.72,-0.37,9.86
9.399982929229736,1.52,5.29,1.4,5.67
9.403445959091187,2.38,2.72,1.29,3.83
9.406028032302856,1.85,1.63,0.52,2.51
9.409954071044922,0.35,2.0,-0.37,2.06
9.412904977798462,-1.32,3.47,-0.67,3.77
9.416937828063965,-2.78,5.32,-0.61,6.03
9.48530101776123,-4.11,6.79,-0.38,7.94
9.487884998321533,-5.18,7.43,-0.07,9.05
9.491466045379639,-5.61,7.26,0.38,9.18
9.495473861694336,-5.05,6.5,1.17,8.31
9.4995698928833,-3.94,5.54,2.0,7.08
9.503203868865967,-2.69,4.4,2.57,5.76
9.50581407546997,-1.19,3.02,2.78,4.27
9.50915002822876,0.12,1.88,2.55,3.17
9.512147903442383,1.41,1.12,2.24,2.87
9.51621699333191,2.86,0.69,1.51,3.3
9.585009098052979,4.38,0.3,0.3,4.4
9.58741807937622,5.63,-0.2,-0.76,5.68
9.590996980667114,6.34,-0.52,-1.19,6.47
9.595176935195923,6.4,-0.24,-1.09,6.49
9.599238872528076,6.57,0.13,-1.05,6.65
9.603364944458008,7.59,-0.07,-1.4,7.71
9.606416940689087,8.73,-0.65,-2.52,9.1
9.609467029571533,8.55,-0.46,-4.01,9.45
9.613260984420776,7.39,0.64,-5.16,9.03
9.615910053253174,6.44,1.49,-5.89,8.85
9.685393810272217,5.61,2.05,-5.56,8.16
9.687816143035889,5.19,2.46,-4.02,7.01
9.691433906555176,5.48,2.39,-2.03,6.31
9.695457935333252,5.72,2.21,-0.23,6.13
9.699522972106934,5.33,1.87,0.27,5.65
9.70346212387085,4.81,1.02,-0.54,4.94
9.706117153167725,4.62,-0.22,-1.86,4.98
9.710057973861694,4.23,-1.05,-3.1,5.34
9.714095115661621,3.7,-1.32,-4.02,5.62
9.718200922012329,3.3,-1.21,-4.47,5.68
9.720880031585693,3.12,-0.74,-4.25,5.32
9.790052890777588,2.5,-0.19,-3.03,3.93
9.793002128601074,1.67,-0.85,-1.26,2.25
9.795280933380127,2.74,-5.19,1.52,6.06
9.799013137817383,-3.86,-12.04,0.17,12.64
9.803287982940674,-19.61,-15.87,-2.23,25.32
9.805763959884644,-25.75,-13.76,3.58,29.41
9.809072017669678,-19.02,-7.04,5.61,21.04
9.813158988952637,-9.28,-1.99,10.68,14.28
9.817269802093506,-3.62,0.4,6.51,7.45
9.820389032363892,-1.22,0.77,-9.56,9.66
9.89013385772705,-2.73,-4.37,-18.56,19.26
9.893100023269653,-5.83,-16.38,-10.79,20.46
9.895429134368896,-1.65,-22.42,8.81,24.14
9.898874998092651,11.16,-12.02,17.04,23.65
9.903340816497803,15.97,-1.02,6.23,17.17
9.905806064605713,10.14,3.98,-6.05,12.46
9.909265995025635,4.92,7.36,-8.21,12.07
9.913302898406982,4.35,8.95,-6.46,11.86
9.917421817779541,6.75,9.83,-6.27,13.47
9.920421123504639,7.24,7.84,-3.54,11.24
9.99042797088623,4.85,3.8,-1.33,6.3
9.993376970291138,2.84,0.15,-2.06,3.51
9.995635032653809,2.07,-2.4,-1.9,3.69
9.999410152435303,1.45,-4.21,-0.58,4.49
10.003373146057129,0.42,-4.83,0.57,4.88
10.005705833435059,-1.08,-4.24,1.16,4.52
10.009449005126953,-3.1,-2.91,1.81,4.62
10.01352596282959,-4.79,-1.35,1.77,5.28
10.017589092254639,-5.91,-0.56,1.34,6.08
10.02066707611084,-5.98,-0.48,0.89,6.06
10.091649055480957,-5.41,-0.83,0.19,5.47
10.094666957855225,-5.04,-1.18,-0.31,5.18
10.097018957138062,-4.91,-1.0,-0.41,5.02
10.100831031799316,-3.79,0.11,-0.55,3.83
10.10385799407959,-1.69,1.62,-0.96,2.53
10.106400966644287,-0.25,2.36,-0.2,2.38
10.122350931167603,-0.25,1.84,0.7,1.98
10.124648094177246,-1.75,-0.59,0.92,2.06
10.128520011901855,-3.66,-4.05,0.88,5.52
10.13246488571167,-5.23,-7.61,0.31,9.23
10.206187963485718,-6.15,-9.69,0.55,11.49
10.20875883102417,-4.8,-7.66,0.92,9.08
10.211326122283936,-1.05,-2.53,0.21,2.74
10.215449810028076,1.57,2.43,0.32,2.91
10.22016191482544,1.06,5.85,0.69,5.98
10.223021984100342,-1.64,5.87,0.38,6.1
10.22600507736206,-3.74,2.53,0.38,4.53
10.22966480255127,-3.44,-2.02,1.15,4.15
10.233776092529297,-1.86,-6.58,1.81,7.07
10.237215995788574,-0.72,-11.45,1.9,11.62
10.309435844421387,-0.71,-16.08,1.63,16.17
10.312367916107178,-0.78,-18.97,1.02,19.01
10.314695835113525,-1.03,-18.07,0.46,18.1
10.318459033966064,-1.74,-13.91,0.63,14.03
10.322114944458008,-2.93,-9.52,0.32,9.96
10.324338912963867,-4.02,-6.3,0.16,7.47
10.339233875274658,-4.99,-3.85,0.49,6.32
10.341609001159668,-5.99,-1.86,1.27,6.39
10.345204830169678,-7.0,0.6,1.43,7.16
10.349203109741211,-7.64,3.69,0.82,8.52
10.424108028411865,-8.39,6.28,0.28,10.48
10.42657995223999,-9.11,8.65,-0.61,12.57
10.430201053619385,-9.19,12.05,-2.14,15.3
10.434237003326416,-7.64,16.33,-5.01,18.71
10.437391996383667,-4.51,15.13,-6.99,17.26
10.43991494178772,-0.48,9.46,-5.95,11.18
10.456002950668335,2.43,5.32,-2.79,6.48
10.458387851715088,4.14,2.51,0.17,4.84
10.461915016174316,4.3,1.01,2.1,4.89
10.46595811843872,2.85,1.18,1.48,3.42
10.541781902313232,1.03,2.68,-0.5,2.91
10.544249057769775,-0.59,4.75,-1.57,5.03
10.54790997505188,-2.11,6.48,-1.26,6.93
10.551926136016846,-3.62,7.51,-0.19,8.33
10.55487585067749,-4.27,7.58,1.36,8.8
10.557201862335205,-4.35,7.05,2.7,8.71
10.572397947311401,-3.85,6.03,3.14,7.81
10.57492208480835,-3.09,4.73,2.35,6.11
10.57823395729065,-1.93,3.49,1.37,4.21
10.58119797706604,-0.31,2.56,0.85,2.71
10.585211038589478,1.83,1.82,0.49,2.62
10.661179065704346,4.27,1.08,-0.35,4.41
10.663658142089844,6.64,0.13,-1.35,6.77
10.66729211807251,8.23,-0.76,-2.41,8.6
10.670834064483643,8.73,-1.03,-3.14,9.33
10.673527002334595,9.14,-0.78,-3.34,9.76
10.688802003860474,9.95,-0.38,-3.45,10.53
10.691251039505005,9.97,0.6,-3.94,10.73
10.694644927978516,8.84,1.88,-4.8,10.23
10.698728084564209,7.45,2.4,-5.53,9.58
10.702782154083252,6.8,1.96,-5.74,9.11
10.77774715423584,6.65,1.33,-4.37,8.06
10.78076696395874,6.48,1.0,-2.56,7.03
10.783132076263428,6.17,1.22,-1.0,6.36
10.787354946136475,5.67,1.49,0.21,5.86
10.79037094116211,5.13,1.58,0.5,5.39
10.794407844543457,4.44,1.3,0.0,4.62
10.798177003860474,3.7,0.76,-0.74,3.84
10.802243947982788,3.08,0.49,-0.98,3.26
10.80604100227356,2.67,0.28,-0.45,2.72
10.808226108551025,2.48,-1.3,1.5,3.17
10.895104885101318,4.18,-7.4,1.4,8.61
10.897563934326172,-2.68,-14.64,-1.81,14.99
10.899911880493164,-20.56,-16.81,1.46,26.59
10.903751850128174,-32.56,-14.95,10.28,37.27
10.906136989593506,-24.57,-6.88,1.71,25.57
10.909812927246094,-7.4,1.51,-1.98,7.8
10.912878036499023,3.8,6.53,-0.45,7.56
10.915918827056885,1.35,2.07,-9.49,9.8
10.920504093170166,-7.91,-17.87,-15.26,24.79
10.923483848571777,-7.59,-43.57,-2.48,44.29
10.9930100440979,9.09,-21.46,20.08,30.76
10.995974063873291,22.38,1.97,11.47,25.22
10.998183965682983,20.61,10.32,-9.69,25.0
11.001871109008789,12.43,13.93,-9.09,20.76
11.005496978759766,6.17,12.89,-7.77,16.26
11.007769107818604,5.3,10.62,-7.7,14.14
11.022812843322754,5.54,6.58,-6.15,10.57
11.025196075439453,4.71,2.83,-2.82,6.17
11.029293060302734,3.85,-0.65,-2.24,4.5
11.033270835876465,3.07,-3.26,-2.31,5.03
11.10352611541748,1.18,-5.24,-1.23,5.51
11.106165885925293,-0.13,-5.64,0.09,5.64
11.10848093032837,-0.6,-4.88,1.46,5.12
11.11215591430664,-1.05,-3.24,2.15,4.02
11.116211891174316,-1.92,-0.87,1.55,2.61
11.119081974029541,-2.65,1.29,0.76,3.04
11.121361017227173,-2.84,2.17,0.44,3.6
11.125412940979004,-2.21,2.17,-0.14,3.1
11.129287004470825,-1.4,1.71,-0.63,2.29
11.133126020431519,-0.88,0.86,-0.25,1.25
11.202971935272217,-0.93,-0.03,-0.12,0.93
11.205423831939697,-1.9,-0.58,-0.16,1.99
11.209025859832764,-3.22,-0.82,0.17,3.32
11.213190078735352,-4.37,-0.83,0.64,4.49
11.217330932617188,-4.96,-0.65,0.81,5.06
11.220962047576904,-5.27,-0.59,1.02,5.4
11.223605155944824,-5.47,-0.75,1.59,5.74
11.226935863494873,-5.32,-0.92,1.27,5.54
11.229799032211304,-4.86,-1.03,0.94,5.05
11.23389482498169,-4.03,-1.01,0.75,4.22
11.304944038391113,-3.43,-1.31,0.14,3.67
11.307405948638916,-3.5,-2.11,-0.23,4.09
11.31089997291565,-3.87,-3.35,-0.04,5.11
11.314934968948364,-3.85,-4.15,0.29,5.66
11.319005966186523,-2.56,-3.61,0.04,4.42
11.32267713546753,-0.43,-1.57,-0.61,1.73
11.324869155883789,1.07,0.41,-1.63,1.99
11.340021133422852,1.06,0.74,-2.02,2.39
11.342458963394165,0.26,-0.31,-2.16,2.19
11.34593915939331,-0.63,-1.91,-2.08,2.89
11.417673110961914,-1.2,-3.95,-1.93,4.55
11.420951843261719,-2.33,-6.33,-1.12,6.83
11.423841953277588,-3.52,-8.36,-0.73,9.1
11.428032875061035,-3.6,-10.15,-0.81,10.79
11.431720972061157,-3.27,-12.7,-0.39,13.12
11.435842990875244,-4.51,-16.94,-0.36,17.53
11.439666986465454,-7.19,-22.32,-1.42,23.49
11.44193410873413,-8.07,-25.32,-1.04,26.59
11.455336093902588,-7.11,-21.08,1.12,22.27
11.45773983001709,-6.9,-13.94,0.32,15.55
11.461258888244629,-8.16,-9.59,-1.77,12.71
11.534120082855225,-10.16,-6.97,-1.99,12.48
11.53721809387207,-12.23,-5.21,-0.93,13.32
11.540087938308716,-13.81,-3.0,-0.68,14.14
11.543118953704834,-14.83,0.24,-2.5,15.04
11.54708194732666,-15.56,2.07,-7.53,17.4
11.55116605758667,-15.47,3.43,-14.82,21.69
11.554500102996826,-13.67,5.36,-20.39,25.12
11.556762933731079,-7.92,6.13,-20.69,22.98
11.571549892425537,2.87,3.22,-15.3,15.89
11.573869943618774,14.98,-1.22,-7.41,16.75
11.64926815032959,19.26,-2.19,-2.83,19.58
11.65231990814209,14.7,-0.61,-4.59,15.41
11.654652118682861,7.19,1.27,-9.38,11.88
11.657546043395996,1.81,3.6,-12.02,12.67
11.673650979995728,-1.74,6.6,-10.9,12.86
11.676076889038086,-4.54,8.88,-7.19,12.29
11.680238008499146,-6.19,9.25,-3.88,11.78
11.684335947036743,-6.84,8.25,-1.2,10.78
11.687718868255615,-6.79,6.74,0.84,9.6
11.690002918243408,-6.44,5.25,2.23,8.6
11.764261960983276,-5.96,3.1,3.28,7.47
11.767181873321533,-5.5,0.37,3.11,6.32
11.76946496963501,-5.47,-2.7,1.71,6.33
11.771780967712402,-5.18,-5.05,-0.08,7.23
11.775134086608887,-4.06,-6.08,-1.86,7.54
11.779178142547607,-2.25,-5.78,-3.38,7.06
11.782160997390747,-0.04,-5.13,-4.88,7.08
11.786219120025635,2.76,-5.41,-6.39,8.81
11.7885160446167,6.1,-5.77,-8.52,11.96
11.792450904846191,7.1,-5.89,-8.56,12.58
11.866650104522705,8.96,-5.01,-9.17,13.76
11.869630813598633,10.67,-3.35,-8.86,14.26
11.872044086456299,10.19,-1.76,-8.41,13.32
11.87610912322998,8.27,-0.58,-8.58,11.93
11.880162954330444,5.89,0.48,-7.82,9.8
11.884151935577393,4.51,0.73,-6.07,7.59
11.887881994247437,4.14,0.41,-5.21,6.66
11.890862941741943,5.32,-0.6,-4.74,7.15
11.894937992095947,7.66,-1.46,-5.59,9.59
11.89900803565979,9.56,-1.56,-7.22,12.08
11.973381042480469,9.95,-0.24,-8.68,13.2
11.975849151611328,9.58,1.2,-8.51,12.86
11.979490995407104,8.95,1.63,-9.62,13.24
11.982558012008667,7.34,-0.69,-11.81,13.92
11.985535144805908,0.07,-7.08,-7.9,10.6
11.989183902740479,-5.3,-18.58,7.34,20.66
11.991420030593872,3.7,-24.97,15.54,29.64
12.006493091583252,5.36,-14.89,6.57,17.13
12.008946895599365,0.55,-0.85,-0.84,1.31
12.012455940246582,-1.54,6.56,-7.0,9.71
12.087016105651855,0.14,9.54,-8.73,12.93
12.090188026428223,2.84,11.72,-5.55,13.27
12.09243106842041,3.95,12.04,-1.2,12.72
12.09624695777893,4.93,8.43,-2.55,10.09
12.100342988967896,7.69,3.1,-9.25,12.42
12.104416847229004,12.04,-2.27,-10.56,16.17
12.106749057769775,14.48,-6.26,-2.12,15.91
12.110467910766602,11.26,-7.36,1.98,13.59
12.114509105682373,5.27,-5.68,-1.0,7.81
12.118546962738037,-0.57,-2.35,-4.02,4.69
12.193273067474365,-4.33,0.35,-2.11,4.82
12.195734024047852,-5.08,1.34,1.35,5.42
12.19935393333435,-4.42,1.05,1.27,4.71
12.203372955322266,-3.36,0.1,0.28,3.37
12.20577096939087,-2.47,-0.95,0.56,2.7
12.20986795425415,-2.05,-1.39,0.48,2.52
12.2136869430542,-1.77,-0.88,-0.26,1.99
12.217787981033325,-1.61,-0.04,-0.77,1.78
12.221378803253174,-1.05,0.59,-0.99,1.55
12.223780155181885,-0.29,0.94,-0.78,1.25
12.298206806182861,0.59,0.94,-0.92,1.44
12.301198959350586,1.25,0.58,-1.08,1.75
12.303789138793945,1.1,0.32,-1.19,1.65
12.306128978729248,0.25,0.21,-1.4,1.43
12.310264110565186,-0.75,-0.09,-1.04,1.28
12.314362049102783,-1.64,-0.18,-1.06,1.96
12.317260980606079,-2.13,-0.1,-1.06,2.38
12.320055961608887,-1.98,-0.18,-0.42,2.03
12.322629928588867,-1.03,-0.33,-0.13,1.08
12.326602935791016,0.0,-0.37,-0.04,0.37
12.33070993423462,0.34,-0.58,0.07,0.67
12.405663967132568,0.18,-0.86,-0.01,0.87
12.408628940582275,-0.26,-1.01,-0.17,1.05
12.410884857177734,-0.67,-0.97,-0.53,1.29
12.424865961074829,-1.0,-0.65,-0.82,1.44
12.427267074584961,-1.2,-0.65,-1.05,1.72
12.431187152862549,-1.45,-0.92,-1.41,2.22
12.435259819030762,-1.97,-1.58,-0.93,2.69
12.438264846801758,-2.64,-2.1,-0.64,3.43
12.440567970275879,-3.25,-2.03,-0.7,3.89
12.455216884613037,-3.47,-1.89,-0.47,3.97
12.528816938400269,-2.93,-1.85,0.01,3.46
12.53178596496582,-2.54,-2.07,1.16,3.47
12.533983945846558,-2.39,-2.53,1.16,3.66
12.537647008895874,-2.39,-2.82,-0.38,3.71
12.540185928344727,-2.56,-2.97,-0.81,4.0
12.543875932693481,-2.81,-3.57,-0.79,4.61
12.547965049743652,-3.59,-4.34,-1.89,5.94
12.551833152770996,-4.56,-5.01,-2.29,7.15
12.554893016815186,-5.03,-5.98,-1.5,7.95
12.55714201927185,-5.44,-7.64,-0.47,9.39
12.643528938293457,-6.65,-10.46,0.51,12.4
12.646135807037354,-8.71,-13.99,1.18,16.52
12.648469924926758,-11.11,-16.56,0.94,19.96
12.652228832244873,-13.13,-16.72,-0.05,21.25
12.655869007110596,-14.08,-14.4,-1.46,20.19
12.658103942871094,-12.63,-11.69,-2.11,17.33
12.67342495918274,-9.16,-9.43,-1.99,13.29
12.675867080688477,-6.16,-7.56,-1.98,9.95
12.679698944091797,-5.09,-5.73,-2.04,7.93
12.683820009231567,-5.28,-4.24,-2.06,7.07
12.759145975112915,-5.69,-3.44,-2.71,7.18
12.761765003204346,-5.93,-2.64,-4.41,7.84
12.764539957046509,-6.11,-1.58,-6.16,8.81
12.768610954284668,-5.95,-0.33,-8.38,10.28
12.771826028823853,-5.68,1.1,-10.28,11.79
12.774377822875977,-5.36,2.0,-10.88,12.29
12.790270805358887,-4.78,2.16,-10.08,11.36
12.79270315170288,-3.28,2.69,-8.47,9.47
12.796020030975342,-0.92,3.51,-7.28,8.13
12.800053119659424,0.49,4.42,-7.07,8.35
12.875546932220459,0.57,5.07,-8.42,9.84
12.878032922744751,0.01,5.08,-10.16,11.35
12.881577014923096,-0.54,4.39,-11.02,11.87
12.88459587097168,-1.14,3.97,-9.51,10.36
12.888317108154297,-1.91,4.19,-6.41,7.89
12.891072988510132,-2.72,4.57,-4.21,6.78
12.894263982772827,-3.56,4.73,-3.99,7.13
12.898221015930176,-4.27,4.99,-4.84,8.15
12.902235984802246,-4.77,5.42,-5.45,9.04
12.905177116394043,-4.74,5.96,-5.02,9.12
12.978516101837158,-4.05,6.37,-4.29,8.68
12.981453895568848,-2.96,6.29,-3.84,7.94
12.983741998672485,-1.9,5.58,-3.71,6.96
12.988263130187988,-1.21,4.49,-3.66,5.91
12.991086959838867,-0.92,3.05,-3.29,4.57
12.994135856628418,-0.2,1.45,-2.98,3.32
12.998063087463379,1.65,0.23,-3.45,3.83
13.002125024795532,3.83,-0.77,-4.32,5.82
13.005213975906372,5.94,-1.49,-5.22,8.04
13.007463932037354,7.39,-1.65,-6.63,10.06
13.095745086669922,8.05,-1.38,-7.49,11.08
13.098308086395264,8.78,-1.26,-7.9,11.87
13.100595951080322,9.5,-1.12,-8.3,12.66
13.10499382019043,9.72,-1.23,-8.66,13.07
13.107798099517822,10.44,-1.66,-8.38,13.48
13.111814975738525,10.77,-1.74,-7.27,13.11
13.115891933441162,9.53,-0.76,-5.06,10.81
13.120013952255249,7.69,0.42,-2.36,8.05
13.122344017028809,5.93,1.3,-1.17,6.18
13.126312971115112,4.82,1.43,-1.59,5.27
13.201851844787598,4.63,0.39,-2.67,5.35
13.2048659324646,4.98,-3.75,-1.45,6.4
13.207521915435791,3.61,-13.75,4.39,14.87
13.210827827453613,0.01,-23.69,15.93,28.54
13.214862823486328,-4.07,-19.8,21.58,29.56
13.218990802764893,-5.99,-5.76,14.24,16.48
13.222906112670898,-4.63,3.77,2.05,6.31
13.225189924240112,-2.49,7.98,-10.18,13.17
13.239113807678223,0.59,10.12,-17.37,20.11
13.241475105285645,3.29,10.98,-15.25,19.07
13.244982957839966,5.42,9.27,-7.77,13.25
13.321868896484375,9.02,5.23,-6.99,12.55
13.324647903442383,13.07,0.46,-6.22,14.48
13.326902866363525,14.28,-3.3,-0.34,14.66
13.330778121948242,10.24,-4.66,3.4,11.75
13.334861040115356,4.15,-4.22,1.25,6.04
13.338918924331665,-0.9,-3.09,-2.13,3.85
13.34139895439148,-4.12,-1.63,-0.57,4.46
13.34471607208252,-5.87,-0.36,2.8,6.51
13.348649024963379,-5.98,-0.03,2.98,6.68
13.352761030197144,-4.82,-0.02,1.22,4.97
13.4288649559021,-2.85,-0.02,0.19,2.85
13.431370973587036,-0.98,0.19,-0.62,1.17
13.434997081756592,0.95,0.16,-1.35,1.65
13.43852186203003,2.38,0.07,-1.89,3.03
13.440871000289917,3.03,0.29,-1.67,3.47
13.44452714920044,2.31,0.84,-1.23,2.74
13.447486877441406,0.84,1.33,-1.01,1.86
13.451552867889404,-0.1,0.95,-0.51,1.08
13.45509386062622,-1.07,0.24,0.75,1.32
13.457515001296997,-1.69,-0.03,1.2,2.07
13.533555030822754,-1.89,-0.45,1.39,2.38
13.536527156829834,-1.99,-0.38,1.43,2.47
13.53878402709961,-1.79,-0.03,0.86,1.98
13.541309833526611,-1.42,0.35,0.71,1.62
13.557376861572266,-1.07,0.79,0.53,1.43
13.559725999832153,-0.73,1.01,0.08,1.24
13.563398838043213,-0.78,0.87,-0.13,1.17
13.567470073699951,-1.31,0.33,-0.16,1.36
13.571671962738037,-1.87,-0.1,-0.01,1.87
13.57393193244934,-1.78,-0.2,0.5,1.85
13.650641918182373,-1.16,0.07,0.86,1.44
13.653615951538086,-0.52,0.31,1.0,1.16
13.655916929244995,-0.41,0.25,0.94,1.05
13.66008186340332,-1.05,-0.23,0.64,1.25
13.664115905761719,-2.01,-1.12,0.3,2.32
13.667946815490723,-3.26,-2.02,0.3,3.84
13.670619010925293,-4.35,-2.1,0.49,4.85
13.674685955047607,-3.46,-0.6,-0.45,3.54
13.678721904754639,-0.54,1.54,-0.49,1.7
13.682918071746826,1.9,2.78,0.8,3.46
13.759457111358643,1.97,2.08,1.21,3.1
13.762418031692505,-0.12,-0.25,0.0,0.27
13.764631032943726,-2.67,-2.81,-1.19,4.05
13.768413066864014,-4.24,-4.43,-1.95,6.43
13.772039890289307,-4.1,-4.49,-2.79,6.68
13.774716854095459,-2.28,-2.91,-2.71,4.58
13.778006076812744,-0.31,-0.93,-1.54,1.82
13.781819820404053,0.01,-0.43,0.19,0.47
13.785928010940552,-1.23,-1.39,0.16,1.86
13.789567947387695,-2.43,-2.86,-0.18,3.75
13.863605976104736,-2.62,-4.78,1.73,5.71
13.866544008255005,-2.59,-6.73,2.61,7.66
13.868867874145508,-2.71,-7.92,2.06,8.62
13.872655868530273,-2.17,-8.84,2.09,9.33
13.875472068786621,-1.45,-10.42,2.74,10.87
13.879476070404053,-1.77,-12.36,3.66,13.01
13.882474899291992,-3.24,-12.98,3.47,13.82
13.886527061462402,-4.59,-11.24,2.55,12.4
13.889418125152588,-5.46,-8.18,1.55,9.95
13.891653060913086,-5.89,-5.39,0.52,8.0
13.978668928146362,-5.65,-3.25,-0.04,6.51
13.981287002563477,-4.55,-1.95,-0.12,4.95
13.983559131622314,-4.0,-0.49,0.19,4.03
13.987360000610352,-4.15,1.68,0.95,4.57
13.989727020263672,-4.09,3.87,2.02,5.98
13.993767023086548,-3.21,5.99,0.81,6.84
13.997828960418701,-3.54,8.01,-1.35,8.86
14.001847982406616,-4.86,10.67,-3.18,12.14
14.005874156951904,-5.96,13.4,-4.15,15.24
14.0081148147583,-6.18,13.13,-4.37,15.15
14.083233833312988,-4.19,9.91,-2.88,11.13
14.086236953735352,-0.72,6.45,0.1,6.49
14.0884850025177,2.72,3.15,2.68,4.95
14.090862035751343,4.41,0.52,3.45,5.62
14.10853385925293,3.97,-0.35,1.9,4.41
14.11095905303955,2.63,0.5,0.56,2.73
14.114995956420898,1.03,2.42,0.52,2.68
14.119118928909302,-0.85,4.52,1.14,4.73
14.122334957122803,-2.6,5.99,1.8,6.77
14.124693870544434,-3.84,6.57,2.57,8.03
14.14047908782959,-4.24,6.23,3.18,8.17
14.214198112487793,-3.68,4.95,3.44,7.06
14.21716594696045,-2.55,3.37,3.1,5.24
14.219465017318726,-1.14,1.98,2.36,3.28
14.221715927124023,0.85,1.1,1.56,2.08
14.225021839141846,3.3,0.59,1.0,3.49
14.229156970977783,6.05,0.04,0.2,6.05
14.233214855194092,8.32,-0.25,-1.0,8.38
14.237300872802734,9.27,0.04,-1.78,9.43
14.241297006607056,8.86,1.0,-2.23,9.19
14.245237827301025,7.9,2.08,-2.62,8.57
14.321210861206055,7.14,2.9,-3.08,8.29
14.32420301437378,6.66,3.45,-3.6,8.31
14.326440811157227,6.36,3.78,-4.28,8.54
14.330223083496094,5.9,4.1,-5.42,8.99
14.334264993667603,5.58,4.01,-6.52,9.47
14.3371000289917,5.62,3.04,-7.08,9.53
14.339355945587158,5.73,1.64,-6.65,8.93
14.342535972595215,5.7,0.34,-5.07,7.63
14.346609115600586,5.22,-0.18,-3.32,6.18
14.350633144378662,4.6,-0.52,-2.0,5.04
14.426023006439209,3.59,-0.54,-1.42,3.89
14.428617000579834,2.3,-0.1,-0.92,2.47
14.43123197555542,1.0,0.44,-0.38,1.15
14.435403823852539,0.29,1.14,0.66,1.34
14.439021110534668,0.85,1.05,1.88,2.31
14.441461086273193,1.59,-2.45,8.52,9.0
14.444981098175049,0.22,-12.11,0.29,12.11
14.44871997833252,-13.77,-20.33,-17.08,29.91
14.452813148498535,-31.18,-23.4,2.82,39.08
14.455584049224854,-31.74,-13.13,4.98,34.7
14.530398845672607,-15.25,-1.96,-0.79,15.39
14.533386945724487,-2.64,1.65,-3.8,4.91
14.535699844360352,6.75,3.48,-0.19,7.59
14.539455890655518,12.11,0.97,-4.33,12.89
14.542053937911987,12.52,-8.32,-6.74,16.47
14.545354843139648,11.03,-18.79,2.44,21.92
14.54939889907837,10.32,-16.49,9.09,21.47
14.553503036499023,8.85,-4.68,5.71,11.52
14.55760383605957,4.96,2.47,-1.34,5.7
14.559816837310791,1.68,5.73,-5.28,7.97
14.645689010620117,1.68,6.95,-6.03,9.35
14.648099899291992,3.3,6.77,-4.34,8.69
14.65035104751587,3.17,4.32,-1.09,5.46
14.653945922851562,0.95,1.34,-0.13,1.64
14.656240940093994,-0.43,-1.04,-0.53,1.24
14.659417152404785,-0.62,-3.47,-0.22,3.53
14.663496017456055,0.08,-4.62,0.25,4.62
14.667529106140137,0.81,-4.01,0.22,4.09
14.672161102294922,0.29,-2.86,0.49,2.91
14.674663066864014,-1.45,-1.55,0.31,2.14
14.751885890960693,-3.14,-0.08,-0.66,3.2
14.755414962768555,-3.84,1.39,-1.09,4.22
14.757900953292847,-3.41,2.09,-0.55,4.03
14.761234998703003,-2.24,1.84,-0.12,2.9
14.765306949615479,-1.39,1.38,-0.36,1.99
14.769304037094116,-1.13,0.24,-0.05,1.15
14.77272891998291,-1.4,-1.78,0.68,2.36
14.775130987167358,-2.38,-3.54,0.78,4.33
14.789888858795166,-3.33,-4.18,0.59,5.37
14.79223108291626,-3.66,-3.22,0.9,4.95
14.869078159332275,-3.11,-1.27,0.41,3.38
14.872287034988403,-2.34,0.37,-0.05,2.36
14.874834060668945,-2.23,0.21,-0.05,2.24
14.877955913543701,-3.07,-1.75,0.46,3.56
14.881785869598389,-4.17,-3.94,0.82,5.79
14.885693073272705,-4.21,-4.81,1.1,6.48
14.889271974563599,-2.87,-3.95,1.35,5.06
14.89237093925476,-0.65,-2.02,0.96,2.32
14.896399021148682,0.91,-1.0,1.11,1.74
14.900300025939941,0.86,-1.49,1.96,2.6
14.97847294807434,-0.77,-3.27,2.5,4.18
14.981684923171997,-2.5,-5.38,2.98,6.63
14.983927965164185,-3.53,-7.21,3.57,8.78
14.98769497871399,-4.39,-8.52,3.3,10.13
14.990005016326904,-5.13,-9.17,2.82,10.87
14.994041919708252,-5.0,-8.98,1.56,10.39
14.998033046722412,-4.08,-8.16,-0.17,9.12
15.002079010009766,-3.55,-6.95,-1.17,7.89
15.004923820495605,-3.14,-5.21,-1.42,6.24
15.007182121276855,-2.74,-3.52,-1.63,4.74
15.01087498664856,-2.62,-2.08,-1.23,3.56
15.088189125061035,-3.07,-0.42,-0.21,3.1
15.091323852539062,-3.53,1.54,0.7,3.91
15.093647956848145,-3.7,3.53,0.66,5.15
15.097563982009888,-3.86,5.11,-0.24,6.4
15.100452899932861,-3.74,6.46,-1.46,7.6
15.103516101837158,-3.47,8.23,-3.32,9.52
15.107651948928833,-3.19,9.65,-2.95,10.58
15.109916925430298,-2.46,8.91,-0.61,9.26
15.127553939819336,-1.22,6.76,0.01,6.86
15.13010311126709,-0.01,4.77,-0.13,4.77
15.206555843353271,1.05,3.39,-0.43,3.57
15.209586143493652,1.62,2.4,-0.68,2.97
15.211834907531738,1.17,1.93,-0.54,2.32
15.215472936630249,0.14,2.12,-0.19,2.13
15.21829891204834,-1.06,2.89,0.31,3.09
15.221202850341797,-2.5,4.14,0.78,4.89
15.223559856414795,-3.67,5.22,0.8,6.43
15.227577924728394,-4.11,5.94,0.75,7.26
15.231770992279053,-3.88,6.3,1.4,7.53
15.234678983688354,-3.32,6.17,2.26,7.36
15.312149047851562,-2.57,5.64,2.82,6.8
15.314600944519043,-1.62,4.87,2.97,5.92
15.318347930908203,-0.36,3.81,2.72,4.69
15.322610855102539,1.06,3.06,2.25,3.94
15.325077056884766,2.94,2.12,1.92,4.1
15.328871011734009,4.96,0.83,1.54,5.25
15.331520080566406,6.46,-0.78,0.75,6.55
15.335487842559814,6.93,-1.75,0.07,7.14
15.338470935821533,7.19,-1.83,-0.41,7.43
15.34110689163208,7.85,-1.69,-1.02,8.09
15.417299032211304,8.16,-1.44,-1.95,8.51
15.420291900634766,7.75,-0.83,-3.33,8.47
15.42260193824768,7.41,-0.02,-5.32,9.12
15.425279140472412,7.09,1.19,-6.69,9.82
15.443841934204102,6.8,2.61,-6.12,9.51
15.446295976638794,7.06,3.56,-4.11,8.91
15.449136972427368,7.3,3.73,-1.74,8.38
15.453137874603271,7.04,2.96,0.16,7.63
15.456294059753418,6.33,1.64,1.01,6.61
15.45858907699585,5.32,0.45,0.65,5.37
15.547395944595337,4.22,-0.22,-0.17,4.22
15.549975872039795,3.18,-0.13,-0.92,3.31
15.552289009094238,1.59,0.62,-1.28,2.13
15.556262016296387,0.11,0.87,-0.77,1.16
15.55919098854065,-0.07,-1.04,3.35,3.5
15.563082933425903,-2.0,-7.83,-2.02,8.33
15.566804885864258,-13.99,-15.15,-13.77,24.79
15.57051706314087,-24.78,-19.03,-3.86,31.48
15.574262142181396,-20.79,-13.33,-4.22,25.05
15.57653284072876,-6.87,-3.85,8.34,11.47
15.663264989852905,6.75,1.44,13.74,15.37
15.665698051452637,13.71,4.14,1.23,14.37
15.667981147766113,6.4,-3.79,-7.05,10.24
15.671708106994629,-7.83,-27.11,-5.23,28.69
15.674013137817383,-15.44,-37.01,4.48,40.35
15.677628993988037,-4.24,-12.03,6.95,14.52
15.68158483505249,6.2,3.29,3.78,7.97
15.685526847839355,8.08,8.26,-3.39,12.04
15.689726829528809,7.39,10.75,-7.08,14.84
15.692017078399658,7.81,11.4,-7.56,15.75
15.768839836120605,8.33,11.23,-5.17,14.9
15.772480964660645,7.62,9.13,-3.21,12.31
15.774825096130371,6.13,4.91,-3.15,8.46
15.778486013412476,4.93,0.13,-2.66,5.6
15.78251600265503,4.42,-3.5,-1.78,5.91
15.786670923233032,4.13,-5.08,-0.95,6.61
15.789794921875,2.86,-5.49,-0.53,6.21
15.792241096496582,0.56,-4.69,0.16,4.72
15.80814504623413,-2.1,-3.11,0.99,3.88
15.810573101043701,-4.72,-1.46,1.18,5.07
15.888084888458252,-6.06,-0.33,0.7,6.1
15.890967845916748,-5.78,0.08,0.63,5.81
15.893186092376709,-4.15,-0.04,0.87,4.24
15.896957874298096,-2.83,0.04,0.99,2.99
15.901001930236816,-2.35,0.46,0.61,2.47
15.90497899055481,-2.38,0.79,0.13,2.51
15.907225131988525,-2.86,0.91,0.36,3.02
15.911109924316406,-3.6,0.41,0.54,3.66
15.914981842041016,-4.41,-0.66,0.59,4.49
15.919035911560059,-4.89,-1.45,0.7,5.14
15.92172908782959,-5.38,-2.14,0.74,5.83
15.997850894927979,-6.01,-2.82,0.26,6.64
16.000782012939453,-6.15,-3.3,-0.46,6.99
16.003075122833252,-5.4,-3.8,0.35,6.61
16.006803035736084,-3.85,-3.92,0.53,5.51
16.009608030319214,-2.32,-3.6,0.57,4.32
16.013685941696167,-1.59,-3.18,0.71,3.62
16.017592906951904,-1.03,-2.73,0.64,2.98
16.021545886993408,-0.1,-2.12,0.98,2.33
16.023870944976807,0.5,-1.66,0.97,1.98
16.02791404724121,-0.5,-1.44,1.33,2.02
16.106738090515137,-2.41,-1.12,2.03,3.34
16.109699010849,-3.16,-0.31,0.92,3.3
16.11191201210022,-2.67,-0.08,-0.1,2.67
16.115721940994263,-2.43,-2.27,0.75,3.4
16.119876861572266,-3.09,-7.28,2.03,8.16
16.123374938964844,-4.77,-13.89,1.61,14.77
16.125983953475952,-5.23,-20.31,0.53,20.97
16.14282989501953,-2.5,-22.49,0.55,22.63
16.145323038101196,1.06,-18.26,1.55,18.35
16.148396015167236,1.52,-12.16,1.52,12.34
16.226452827453613,-1.1,-7.75,0.59,7.84
16.229412078857422,-3.7,-4.73,1.65,6.22
16.231619834899902,-6.01,-2.43,3.01,7.14
16.235337018966675,-8.16,0.24,2.9,8.66
16.238234996795654,-9.5,3.78,1.87,10.39
16.240504026412964,-10.28,7.52,1.2,12.79
16.243438959121704,-10.77,11.82,-0.29,15.99
16.246429920196533,-10.89,17.19,-2.95,20.56
16.249392986297607,-9.38,18.58,-5.24,21.46
16.25351905822754,-5.83,12.93,-5.71,15.28
16.331725120544434,-3.31,8.12,-4.39,9.8
16.334282875061035,-1.75,5.37,-2.33,6.1
16.337926864624023,-0.36,3.04,-0.42,3.08
16.3415629863739,0.53,1.11,0.64,1.38
16.34386110305786,0.46,0.71,0.29,0.89
16.358219146728516,0.02,1.99,-0.58,2.07
16.360626935958862,-0.41,4.09,-0.79,4.18
16.364222049713135,-0.58,5.85,-0.42,5.89
16.36819100379944,-0.76,6.88,-0.14,6.92
16.372304916381836,-0.92,7.12,-0.16,7.18
16.45029592514038,-1.1,6.94,-0.11,7.02
16.453288078308105,-1.34,6.69,0.15,6.82
16.45558500289917,-1.57,6.27,0.63,6.49
16.457948923110962,-1.6,5.66,0.84,5.94
16.461084842681885,-0.78,5.03,0.76,5.14
16.464955806732178,1.18,4.01,0.35,4.19
16.469023942947388,3.69,2.52,-0.57,4.5
16.473086833953857,6.24,0.83,-2.17,6.65
16.475620985031128,8.54,-0.95,-3.83,9.4
16.47898292541504,10.74,-2.31,-5.0,12.06
16.559679985046387,12.91,-2.88,-5.7,14.4
16.56238603591919,13.99,-1.98,-5.97,15.33
16.564594984054565,12.56,0.51,-5.99,13.92
16.568307876586914,9.75,2.89,-6.47,12.05
16.572379112243652,7.8,3.6,-7.13,11.16
16.574697017669678,6.94,3.15,-6.56,10.05
16.578343868255615,7.11,1.9,-4.9,8.84
16.582415103912354,7.54,0.51,-2.22,7.87
16.586544036865234,6.98,-0.21,0.6,7.0
16.59006690979004,5.01,-0.08,2.59,5.64
16.670939922332764,2.33,0.1,3.35,4.08
16.673990964889526,0.48,-0.34,4.36,4.39
16.676223039627075,-0.07,-3.77,11.85,12.43
16.679934978485107,-2.54,-14.55,10.15,17.92
16.683998107910156,-16.39,-23.72,-5.02,29.26
16.688058853149414,-30.29,-23.19,6.36,38.67
16.69187092781067,-33.16,-9.57,8.7,35.59
16.694060802459717,-14.53,1.09,0.35,14.57
16.70724582672119,3.19,7.0,-10.56,13.06
16.70950412750244,12.8,10.04,-14.77,21.97
16.79156494140625,10.44,-2.13,-16.31,19.48
16.794534921646118,0.51,-36.16,-0.21,36.16
16.796739101409912,0.96,-45.41,14.75,47.75
16.800487995147705,12.28,-10.07,16.65,23.0
16.804616928100586,10.37,6.29,-2.22,12.33
16.80827283859253,4.58,12.34,-8.53,15.68
16.810478925704956,1.12,13.34,-6.6,14.92
16.825194835662842,1.74,12.88,-8.08,15.3
16.827548027038574,3.87,10.47,-5.22,12.32
16.831107139587402,5.27,5.98,-1.18,8.05
16.834990978240967,5.27,1.46,-1.13,5.58
16.9164400100708,4.77,-2.94,-1.78,5.87
16.91948890686035,4.99,-6.66,-1.29,8.42
16.921738147735596,4.41,-8.07,-1.44,9.3
16.924978017807007,2.06,-6.78,-1.31,7.2
16.929067134857178,-1.09,-4.46,-0.68,4.64
16.9328670501709,-4.17,-1.59,0.08,4.46
16.93671703338623,-6.24,0.69,0.1,6.27
16.940299034118652,-6.7,1.85,0.43,6.96
16.942559003829956,-5.75,1.83,0.53,6.05
16.946178913116455,-3.85,0.38,1.81,4.27
17.029937982559204,-2.09,-0.84,2.33,3.24
17.032873153686523,-0.57,-1.02,1.75,2.1
17.035082817077637,0.34,-0.62,1.45,1.61
17.03881311416626,0.13,-0.02,1.25,1.25
17.041075944900513,-0.92,0.36,0.37,1.05
17.045085906982422,-2.19,0.34,-0.69,2.32
17.049059867858887,-3.17,-0.36,-0.48,3.22
17.053142070770264,-3.85,-1.28,0.04,4.05
17.057279109954834,-4.24,-1.99,-0.01,4.68
17.059545040130615,-4.04,-2.0,-0.04,4.5
17.143485069274902,-3.36,-1.3,0.02,3.6
17.146427154541016,-2.78,-0.27,0.01,2.79
17.14875102043152,-2.41,0.51,-0.18,2.46
17.152539014816284,-1.98,1.0,-0.27,2.23
17.156754970550537,-1.4,1.27,-0.26,1.9
17.159148931503296,-0.92,1.04,0.05,1.38
17.162692070007324,-0.83,0.42,0.5,1.05
17.166661977767944,-0.95,0.31,0.34,1.05
17.170627117156982,-0.55,0.8,-0.69,1.19
17.17381000518799,0.05,0.9,-1.11,1.42
17.25631809234619,-0.16,-0.74,-0.73,1.05
17.259267807006836,-1.26,-3.9,-0.07,4.09
17.26159906387329,-2.03,-7.59,0.19,7.85
17.265295028686523,-1.65,-11.62,0.81,11.76
17.269366979599,-1.08,-16.27,2.2,16.45
17.272225856781006,-1.42,-21.44,3.61,21.78
17.274502992630005,-3.06,-24.79,3.78,25.26
17.278242111206055,-4.95,-23.5,3.39,24.25
17.28205680847168,-6.59,-18.88,3.43,20.28
17.28612494468689,-8.65,-13.98,2.41,16.61
17.371366024017334,-10.51,-9.81,0.68,14.39
17.373828887939453,-11.88,-6.64,-0.14,13.61
17.377321004867554,-12.94,-5.0,0.65,13.88
17.381391048431396,-13.81,-3.45,0.9,14.26
17.385429859161377,-14.72,-0.57,1.29,14.78
17.389358043670654,-15.02,2.51,2.11,15.37
17.391618013381958,-13.93,4.97,-1.85,14.9
17.395392894744873,-13.86,8.25,-13.72,21.17
17.399487018585205,-13.73,10.38,-26.36,31.48
17.403730869293213,-6.71,5.67,-27.17,28.55
17.488845825195312,6.5,-1.32,-16.17,17.47
17.49128794670105,18.8,-8.59,-0.14,20.66
17.494781017303467,19.84,-9.64,4.89,22.59
17.498903036117554,12.52,-5.85,-2.91,14.12
17.50298500061035,5.48,-1.36,-11.04,12.4
17.507080078125,0.2,3.49,-13.23,13.68
17.50977087020874,-4.6,7.02,-10.08,13.11
17.513731956481934,-8.78,8.92,-6.1,13.92
17.517876148223877,-11.03,7.84,-2.48,13.75
17.522061824798584,-11.04,4.94,1.06,12.14
17.607645988464355,-9.98,2.35,2.76,10.61
17.61007308959961,-8.17,-0.06,1.99,8.4
17.61357593536377,-5.62,-1.97,0.02,5.95
17.617555141448975,-2.82,-3.56,-1.85,4.9
17.621469020843506,-0.67,-4.66,-3.62,5.93
17.62504291534424,1.48,-5.02,-5.25,7.41
17.627238035202026,3.36,-5.52,-5.8,8.68
17.644618034362793,5.59,-6.04,-5.64,9.97
17.64708399772644,7.84,-5.73,-5.8,11.31
17.650641918182373,9.12,-4.31,-7.21,12.39
17.73785901069641,9.56,-2.6,-8.47,13.03
17.74084711074829,10.04,-0.81,-8.29,13.04
17.743162155151367,9.55,0.07,-8.45,12.75
17.746763944625854,7.28,0.32,-8.25,11.0
17.75080895423889,4.55,-0.1,-6.86,8.23
17.754809856414795,3.23,-0.84,-4.38,5.5
17.758432865142822,3.61,-2.27,-1.89,4.66
17.760694980621338,5.31,-3.61,-1.42,6.57
17.77554702758789,7.82,-3.79,-2.29,8.98
17.77787685394287,9.55,-2.46,-4.17,10.7
17.781557083129883,10.0,-0.37,-5.99,11.66
17.867965936660767,9.88,1.75,-6.65,12.03
17.870945930480957,9.74,2.85,-6.27,11.92
17.873186111450195,9.83,2.21,-8.29,13.04
17.87555980682373,5.63,-0.39,-10.47,11.89
17.893784046173096,-5.41,-6.0,-3.78,8.91
17.89623498916626,-2.86,-15.85,12.42,20.33
17.900146961212158,10.81,-19.36,14.09,26.27
17.904283046722412,10.76,-10.71,5.03,15.99
17.907379150390625,5.01,-2.02,0.72,5.44
17.909634113311768,0.66,3.15,-1.47,3.53
18.008147954940796,-2.16,5.49,-0.59,5.92
18.010573863983154,-4.02,6.91,1.53,8.13
18.012871980667114,-4.64,7.28,0.11,8.63
18.016569137573242,-2.2,5.66,-7.17,9.39
18.019354820251465,2.46,2.83,-14.71,15.18
18.023818969726562,9.42,-1.09,-9.18,13.19
18.026215076446533,15.59,-4.21,2.44,16.33
18.029672145843506,14.78,-3.96,4.03,15.82
18.03374481201172,8.01,-2.21,-1.0,8.36
18.03791904449463,0.15,0.27,-3.77,3.78
18.122652053833008,-4.69,1.88,-1.59,5.29
18.12509799003601,-5.98,1.73,0.88,6.28
18.128718852996826,-5.21,0.66,0.94,5.33
18.132900953292847,-3.76,-0.61,0.78,3.88
18.13708996772766,-1.91,-1.7,0.92,2.71
18.141134023666382,-0.13,-2.21,0.7,2.32
18.143692016601562,0.89,-1.95,0.33,2.16
18.1469669342041,0.97,-1.28,-0.09,1.6
18.15103006362915,0.26,-0.4,-0.63,0.79
18.155017852783203,-0.73,0.35,-0.81,1.14
18.239905834197998,-1.32,0.76,-0.63,1.64
18.24236011505127,-1.14,0.46,-0.31,1.26
18.245957851409912,-0.42,-0.18,-0.3,0.54
18.25006103515625,-0.81,-0.57,-0.25,1.02
18.25424599647522,-1.79,-0.56,-0.05,1.87
18.257768154144287,-2.33,-0.03,-0.44,2.37
18.260443925857544,-2.49,0.56,-0.65,2.63
18.275923013687134,-2.22,0.96,-0.84,2.56
18.278293132781982,-1.99,0.62,-1.3,2.45
18.281932830810547,-1.74,0.34,-1.82,2.54
18.367275953292847,-1.5,0.2,-2.09,2.58
18.37052583694458,-1.44,0.06,-1.84,2.33
18.37274193763733,-1.27,0.03,-1.33,1.83
18.375178813934326,-0.72,-0.1,-1.17,1.37
18.37859582901001,-0.01,-0.41,-0.71,0.81
18.382646083831787,0.82,-0.92,0.25,1.25
18.386684894561768,1.25,-1.43,0.94,2.11
18.390738010406494,0.94,-1.76,0.95,2.2
18.39316415786743,-0.16,-1.87,0.91,2.08
18.396626949310303,-1.42,-1.78,0.87,2.43
18.48224902153015,-2.18,-1.55,0.45,2.71
18.485162019729614,-2.36,-1.2,0.13,2.65
18.487385988235474,-2.56,-1.0,0.77,2.85
18.491007804870605,-2.58,-1.1,0.53,2.85
18.49350881576538,-1.86,-1.34,-0.49,2.34
18.496259927749634,-0.88,-1.44,-0.44,1.74
18.500242948532104,0.04,-1.54,-0.08,1.54
18.504374980926514,0.5,-1.79,-0.43,1.9
18.50774908065796,0.05,-2.62,-0.7,2.71
18.50999093055725,-1.61,-3.61,-0.96,4.06
18.608891010284424,-3.79,-4.56,-0.88,5.99
18.611393928527832,-5.78,-5.97,0.32,8.31
18.613717079162598,-7.52,-7.85,1.59,10.98
18.617466926574707,-9.41,-9.81,2.51,13.82
18.62045907974243,-11.12,-11.57,2.81,16.29
18.62452507019043,-11.64,-13.87,2.58,18.28
18.627049922943115,-11.4,-16.54,1.69,20.15
18.631152153015137,-11.13,-17.98,0.3,21.14
18.635251998901367,-10.56,-17.17,0.76,20.17
18.639360904693604,-10.06,-13.81,2.01,17.2
18.724483013153076,-9.93,-9.56,0.1,13.78
18.727447986602783,-9.31,-6.74,-2.57,11.77
18.72974395751953,-8.23,-4.66,-4.43,10.44
18.73343300819397,-7.38,-3.02,-5.86,9.89
18.737550973892212,-6.78,-2.04,-7.26,10.14
18.74102783203125,-6.15,-1.16,-8.27,10.37
18.743692874908447,-5.36,-0.18,-10.05,11.39
18.746986865997314,-4.54,0.37,-11.22,12.1
18.751018047332764,-3.27,0.77,-11.04,11.53
18.755127906799316,-1.36,1.59,-9.77,9.99
18.758111000061035,0.8,2.95,-8.49,9.02
18.84370183944702,1.82,4.58,-8.37,9.71
18.846683979034424,1.12,6.08,-9.81,11.59
18.848971843719482,-0.11,6.39,-11.91,13.51
18.852694988250732,-0.74,5.79,-12.85,14.11
18.85676383972168,-1.47,5.49,-10.86,12.25
18.859081983566284,-2.42,5.8,-7.08,9.46
18.862740993499756,-3.51,6.34,-4.57,8.56
18.866804122924805,-4.45,6.13,-3.48,8.33
18.870944023132324,-5.09,5.48,-3.86,8.41
18.874465942382812,-5.36,4.89,-4.43,8.5
18.96069598197937,-4.92,4.22,-4.19,7.71
18.963522911071777,-4.13,3.64,-3.42,6.48
18.96581792831421,-3.21,2.84,-2.59,5.0
18.969656944274902,-2.41,1.84,-2.27,3.78
18.974019050598145,-2.22,1.18,-2.32,3.42
18.97744083404541,-2.22,0.87,-2.76,3.64
18.980222940444946,-2.23,0.94,-3.55,4.29
18.983134031295776,-1.74,0.91,-4.37,4.79
18.987238883972168,-0.62,0.5,-5.07,5.13
18.990127086639404,1.41,-0.11,-5.7,5.87
19.077194929122925,3.42,-0.83,-5.73,6.72
19.080140113830566,3.82,-1.59,-5.22,6.66
19.082446098327637,4.6,-1.39,-5.18,7.06
19.08613395690918,5.2,-0.69,-4.82,7.12
19.09021806716919,6.12,-0.35,-4.73,7.74
19.09261989593506,7.52,-0.12,-4.68,8.85
19.096199989318848,8.3,-0.27,-5.69,10.06
19.100255966186523,7.63,-0.39,-7.02,10.37
19.104322910308838,7.37,-1.15,-7.76,10.76
19.10794496536255,7.34,-1.94,-7.75,10.84
19.195533990859985,7.14,-2.12,-6.2,9.69
19.19846200942993,7.15,-1.56,-3.72,8.2
19.200777053833008,7.42,-0.34,-2.38,7.79
19.204554080963135,7.59,0.89,-2.81,8.14
19.208048820495605,7.52,1.41,-4.3,8.77
19.210654973983765,7.56,1.49,-5.5,9.46
19.214661121368408,7.57,1.47,-5.72,9.6
19.218635082244873,7.29,1.39,-4.68,8.77
19.222803115844727,6.75,1.83,-3.24,7.7
19.226576805114746,5.28,2.33,-2.9,6.45
19.31440305709839,1.76,1.49,-5.15,5.64
19.317312955856323,-6.59,-1.55,-4.95,8.38
19.319590091705322,-18.59,-8.46,2.19,20.54
19.323051929473877,-12.85,-17.87,13.58,25.86
19.325328826904297,3.4,-18.97,12.43,22.93
19.32831597328186,7.06,-7.91,4.86,11.66
19.332311153411865,3.29,1.4,-2.39,4.3
19.335263967514038,0.8,4.82,-6.97,8.51
19.339425086975098,1.1,5.82,-4.91,7.69
19.343191146850586,1.99,5.52,2.27,6.29
19.4317409992218,2.08,4.51,2.12,5.4
19.434684991836548,2.45,2.8,-6.55,7.53
19.43697500228882,3.91,0.46,-13.79,14.34
19.441378116607666,6.13,-1.79,-11.76,13.38
19.444236040115356,8.17,-2.79,-1.46,8.75
19.44731092453003,7.38,-2.02,5.26,9.28
19.451353073120117,3.79,-0.86,2.43,4.58
19.455533027648926,0.0,0.32,-1.83,1.85
19.45844793319702,-2.57,1.34,-1.87,3.44
19.460660934448242,-3.56,1.4,0.55,3.86
19.56249189376831,-3.18,0.84,0.82,3.38
19.565021991729736,-2.02,-0.03,-0.5,2.08
19.56731605529785,-0.74,-0.51,-0.43,0.99
19.57111692428589,0.39,-0.64,0.68,1.01
19.574592113494873,1.12,-0.66,0.83,1.54
19.576940059661865,1.24,-0.35,0.0,1.28
19.58055591583252,0.89,-0.01,-0.61,1.07
19.58459711074829,0.3,0.06,-0.7,0.76
19.587532997131348,-0.29,-0.11,-0.37,0.48
19.59143590927124,-0.98,-0.5,-0.21,1.12
19.682109832763672,-2.1,-0.68,0.12,2.21
19.685022830963135,-2.92,-0.4,0.06,2.94
19.687324047088623,-3.12,0.06,0.48,3.15
19.691460132598877,-2.76,0.58,0.58,2.87
19.69423484802246,-2.45,0.85,0.84,2.72
19.697407960891724,-1.76,1.23,0.63,2.23
19.701472997665405,-0.88,1.39,0.58,1.74
19.70554780960083,-0.32,1.0,0.53,1.17
19.708468914031982,-0.79,-0.01,0.5,0.93
19.710665941238403,-1.9,-1.19,0.55,2.3
19.725239992141724,-2.55,-2.19,0.55,3.4
19.814908027648926,-3.07,-3.19,1.17,4.57
19.817755937576294,-3.86,-3.95,1.54,5.73
19.820044994354248,-4.33,-3.75,0.42,5.74
19.82369303703308,-3.85,-2.57,-0.86,4.7
19.825972080230713,-3.05,-1.45,-0.76,3.46
19.82975697517395,-2.73,-0.9,-0.16,2.87
19.833757877349854,-2.62,-0.61,0.08,2.69
19.837891101837158,-2.21,-0.47,-0.29,2.27
19.841495037078857,-1.38,-0.94,0.36,1.7
19.843799114227295,-0.9,-2.5,1.43,3.01
19.935580015182495,-1.34,-4.78,2.12,5.39
19.938645839691162,-2.26,-7.16,2.69,7.97
19.940935134887695,-3.1,-9.47,3.11,10.43
19.943368911743164,-4.02,-11.41,3.35,12.55
19.96118998527527,-4.93,-11.82,3.28,13.22
19.96362590789795,-5.8,-9.95,2.76,11.84
19.967576026916504,-6.02,-6.65,2.34,9.27
19.971678018569946,-5.94,-4.18,1.36,7.38
19.974975109100342,-6.01,-3.01,0.48,6.73
19.977224826812744,-6.55,-1.66,0.85,6.81
20.081777095794678,-7.55,1.02,1.97,7.86
20.08426809310913,-7.68,4.27,2.45,9.12
20.08655095100403,-6.35,7.44,-0.46,9.79
20.090281009674072,-4.53,10.56,-6.67,13.28
20.092589855194092,-3.43,13.04,-12.8,18.59
20.096585035324097,-2.22,13.07,-13.91,19.21
20.09945797920227,-0.25,10.01,-8.21,12.94
20.103447914123535,2.49,6.2,-2.35,7.08
20.108097076416016,4.27,3.29,-0.9,5.46
20.110502004623413,5.15,1.11,-1.9,5.6
20.20398497581482,5.32,0.34,-2.85,6.04
20.20685386657715,4.11,1.46,-2.39,4.97
20.209206104278564,2.13,3.84,-1.11,4.52
20.213305950164795,-0.1,6.14,0.03,6.14
20.216207027435303,-2.51,7.73,0.88,8.17
20.220170974731445,-4.57,7.88,1.88,9.3
20.22404909133911,-5.82,6.98,2.74,9.49
20.22634792327881,-6.79,5.93,3.1,9.53
20.23003387451172,-6.73,4.8,3.97,9.17
20.234041929244995,-5.77,3.71,4.45,8.17
20.32888412475586,-3.79,2.79,4.71,6.65
20.331820964813232,-1.45,2.26,4.09,4.89
20.33402681350708,0.96,1.67,2.65,3.27
20.33785390853882,3.48,0.96,0.76,3.68
20.34069585800171,5.99,-0.12,-1.09,6.08
20.34294605255127,8.14,-1.19,-3.11,8.79
20.346735954284668,9.81,-1.97,-4.25,10.87
20.350723028182983,10.6,-1.77,-4.64,11.7
20.354833126068115,11.15,-0.74,-4.83,12.17
20.35834503173828,10.97,0.85,-5.19,12.16
20.452438831329346,9.34,2.88,-5.55,11.23
20.45547103881836,7.16,4.78,-5.56,10.24
20.457810878753662,5.51,5.71,-5.43,9.61
20.460170030593872,5.41,5.07,-4.71,8.78
20.477818965911865,5.66,3.8,-3.89,7.84
20.480255126953125,5.53,2.26,-2.85,6.61
20.484360933303833,5.02,0.81,-1.54,5.31
20.488502025604248,4.33,-0.26,-0.27,4.34
20.491919994354248,3.74,-1.05,0.31,3.89
20.494153022766113,3.09,-1.33,-0.2,3.37
20.590667963027954,2.62,-1.13,-1.13,3.06
20.593624114990234,2.32,-0.48,-1.91,3.04
20.595853805541992,1.94,0.58,-1.97,2.82
20.599540948867798,1.35,1.44,-1.21,2.31
20.603513956069946,0.39,0.4,-0.11,0.56
20.60748291015625,-0.79,-5.57,3.05,6.39
20.60984992980957,-7.99,-16.42,-8.44,20.11
20.613717079162598,-28.54,-21.0,-8.5,36.43
20.617488861083984,-30.84,-14.33,-0.1,34.0
20.6215980052948,-13.72,-1.21,0.7,13.79
20.71847915649414,2.16,4.6,10.21,11.4
20.721077919006348,17.78,5.71,9.64,21.01
20.724719047546387,17.85,0.57,-1.59,17.92
20.727087020874023,1.69,-17.77,-8.94,19.96
20.730824947357178,-12.02,-44.26,-0.71,45.86
20.734864950180054,-6.23,-24.9,13.02,28.78
20.739015102386475,6.63,0.98,12.2,13.91
20.742103099822998,6.01,7.53,0.1,9.63
20.744323015213013,2.28,10.13,-9.04,13.76
20.759174823760986,1.43,11.13,-9.3,14.57
20.761497020721436,2.73,11.36,-6.64,13.43
20.8613018989563,4.51,10.24,-4.33,11.99
20.864279985427856,4.85,7.17,-4.28,9.65
20.86650800704956,4.48,3.24,-3.71,6.65
20.87019109725952,4.52,-0.87,-2.12,5.06
20.874130964279175,4.53,-4.57,-0.5,6.45
20.8764328956604,3.61,-6.62,-0.13,7.54
20.880419969558716,1.64,-6.53,0.06,6.73
20.884686946868896,-0.58,-4.68,0.69,4.76
20.888733863830566,-2.57,-2.46,1.27,3.77
20.89233112335205,-3.76,-0.52,1.13,3.96
20.990391969680786,-4.17,0.85,0.96,4.36
20.993392944335938,-3.86,1.18,1.07,4.17
20.995675086975098,-3.61,0.58,1.27,3.87
20.999428033828735,-3.1,0.64,0.55,3.21
21.003365993499756,-1.63,1.41,0.14,2.15
21.007285118103027,-0.2,1.88,0.87,2.08
21.009549140930176,0.25,1.74,0.93,1.98
21.013512134552002,-0.4,0.78,0.42,0.97
21.017581939697266,-1.51,-0.61,0.34,1.66
21.021835803985596,-2.52,-1.94,0.39,3.2
21.122459888458252,-3.73,-3.63,0.82,5.26
21.125125885009766,-5.13,-4.28,0.97,6.75
21.127650022506714,-4.43,-2.59,-0.88,5.2
21.13099694252014,-2.24,0.05,-1.88,2.92
21.134861946105957,-0.73,1.76,-1.14,2.22
21.13896894454956,-0.65,1.67,-1.58,2.38
21.14238214492798,-1.42,-0.11,-1.72,2.23
21.14462399482727,-1.84,-2.85,-0.75,3.47
21.16000199317932,-1.47,-6.39,0.31,6.56
21.162287950515747,-1.8,-10.56,2.14,10.92
21.26510500907898,-3.07,-12.84,3.91,13.76
21.26801896095276,-3.42,-10.89,3.88,12.05
21.27029514312744,-2.22,-6.64,2.91,7.58
21.273947954177856,-1.62,-3.96,3.69,5.64
21.276226043701172,-2.9,-4.29,4.44,6.82
21.280225038528442,-5.5,-6.81,3.81,9.54
21.28425097465515,-7.5,-9.42,3.47,12.53
21.288312911987305,-7.74,-10.1,2.09,12.89
21.291348934173584,-5.84,-8.7,0.64,10.49
21.29396915435791,-3.56,-6.05,-0.46,7.03
21.395864009857178,-2.59,-3.51,-1.33,4.56
21.398864030838013,-2.61,-1.74,-2.02,3.73
21.401078939437866,-3.09,-0.05,-2.56,4.01
21.404755115509033,-4.44,2.14,-1.95,5.3
21.40876293182373,-6.05,4.58,-1.73,7.78
21.411573886871338,-7.16,6.94,-2.37,10.24
21.415567874908447,-7.09,9.49,-3.79,12.43
21.41963481903076,-4.79,12.25,-5.77,14.36
21.422597885131836,-0.89,12.09,-5.74,13.41
21.425757884979248,2.52,8.56,-3.67,9.64
21.526381969451904,3.16,5.35,-2.09,6.55
21.5293710231781,2.11,3.5,-1.25,4.27
21.53165292739868,0.92,3.0,-1.0,3.29
21.53537607192993,-0.56,3.54,-0.85,3.68
21.539498805999756,-2.23,4.63,-0.83,5.2
21.542532920837402,-3.81,5.76,-0.58,6.93
21.5450758934021,-5.02,6.71,-0.12,8.38
21.56394600868225,-5.49,7.13,0.55,9.01
21.566406965255737,-5.22,6.74,1.4,8.63
21.569868087768555,-4.48,5.93,2.33,7.78
21.673195838928223,-3.45,5.07,2.8,6.74
21.67632007598877,-2.36,4.36,2.59,5.59
21.67853307723999,-1.17,3.62,2.14,4.36
21.682011127471924,-0.28,3.03,1.81,3.54
21.686057090759277,0.41,2.84,1.38,3.18
21.690124988555908,1.52,2.78,0.57,3.21
21.692919969558716,3.32,2.53,-0.47,4.2
21.695106983184814,5.66,2.14,-1.42,6.21
21.710186004638672,7.97,1.65,-2.07,8.39
21.712533950805664,9.58,1.32,-2.61,10.01
21.815693855285645,10.61,1.17,-3.03,11.09
21.818625926971436,11.65,0.86,-3.35,12.15
21.820880889892578,12.24,0.88,-3.55,12.77
21.824411869049072,10.76,1.73,-3.3,11.38
21.826725006103516,7.39,3.12,-3.12,8.6
21.83058786392212,4.95,3.43,-3.99,7.22
21.834605932235718,4.43,2.37,-4.8,6.94
21.838446140289307,5.31,0.72,-4.28,6.85
21.84113597869873,6.59,-0.69,-2.47,7.07
21.84342908859253,7.02,-1.27,0.18,7.13
21.847136974334717,5.9,-0.99,1.96,6.29
21.95044994354248,3.62,-0.09,1.66,3.98
21.953413009643555,1.49,1.02,0.88,2.0
21.95567512512207,0.44,2.12,0.57,2.23
21.959398984909058,1.01,2.52,0.67,2.79
21.961984157562256,2.53,0.8,2.44,3.6
21.96607208251953,5.12,-6.45,-1.28,8.33
21.96984601020813,-7.76,-16.58,-17.61,25.4
21.973877906799316,-27.66,-23.93,-0.82,36.58
21.9776930809021,-31.81,-18.13,0.0,36.61
21.981718063354492,-15.99,-2.46,-2.24,16.33
22.08668088912964,-1.86,1.69,7.27,7.69
22.089761972427368,5.23,-10.0,5.46,12.53
22.092111110687256,3.09,-33.22,4.77,33.7
22.09466314315796,-2.06,-29.59,12.65,32.24
22.11229181289673,2.47,-5.81,8.25,10.38
22.114792823791504,4.98,5.41,-2.78,7.86
22.118897914886475,5.84,9.03,-12.19,16.25
22.12304401397705,7.71,10.96,-12.27,18.16
22.125869035720825,12.03,11.09,-8.88,18.61
22.128093957901,14.43,10.74,-7.03,19.31
22.246056079864502,10.89,9.29,-6.07,15.54
22.24863600730896,4.94,5.94,-4.24,8.81
22.250916957855225,1.84,2.8,-2.78,4.35
22.254639148712158,0.96,-0.36,-1.1,1.5
22.25908398628235,0.53,-3.71,-0.07,3.74
22.2613468170166,-0.33,-6.67,0.93,6.74
22.265122890472412,-1.77,-8.44,2.42,8.95
22.269137859344482,-3.06,-7.88,3.1,9.0
22.273202896118164,-3.79,-4.99,2.13,6.61
22.27625608444214,-4.35,-1.92,1.91,5.12
22.380784034729004,-4.91,0.53,1.62,5.19
22.383758068084717,-4.52,2.45,0.56,5.17
22.386029958724976,-3.3,3.57,-0.25,4.86
22.389837980270386,-1.59,3.85,-0.22,4.17
22.393002033233643,0.04,3.12,0.71,3.2
22.3955979347229,0.54,1.77,0.66,1.96
22.411447048187256,-0.06,0.16,0.38,0.41
22.413877964019775,-1.37,-0.94,0.22,1.67
22.41771411895752,-3.05,-1.95,0.08,3.62
22.421812057495117,-4.72,-2.79,-0.25,5.48
22.528903007507324,-5.47,-2.8,-0.29,6.15
22.531383991241455,-4.63,-1.79,0.1,4.96
22.533654928207397,-2.88,-0.91,0.3,3.03
22.537261962890625,-2.44,-0.38,0.3,2.48
22.54008197784424,-2.5,-1.12,-0.11,2.74
22.544342041015625,-2.2,-2.61,-0.12,3.41
22.547266960144043,-1.79,-3.95,0.59,4.37
22.56241512298584,-1.79,-5.47,1.95,6.07
22.56470489501953,-2.07,-5.9,2.66,6.79
22.568552017211914,-1.5,-4.3,1.75,4.87
22.673802852630615,-0.5,-2.57,1.23,2.89
22.6769380569458,-1.07,-2.96,1.96,3.7
22.679180145263672,-3.0,-5.34,2.58,6.64
22.682971954345703,-4.37,-8.07,2.41,9.48
22.687031984329224,-4.44,-10.67,2.13,11.75
22.691123962402344,-4.04,-13.0,2.03,13.76
22.69364881515503,-3.76,-14.39,1.75,14.97
22.695868968963623,-2.58,-13.87,1.63,14.2
22.711148977279663,-1.31,-11.45,1.32,11.6
22.713568925857544,-2.12,-8.22,-0.29,8.49
22.81755304336548,-3.62,-5.0,-0.89,6.23
22.8205349445343,-4.95,-2.52,-0.31,5.56
22.822751998901367,-5.93,-0.59,0.35,5.96
22.826516151428223,-7.12,1.71,1.11,7.4
22.82919192314148,-8.06,4.59,1.41,9.38
22.832417964935303,-8.6,7.59,0.48,11.48
22.836370944976807,-8.94,11.27,-1.7,14.48
22.84045696258545,-8.87,17.29,-5.67,20.24
22.843257904052734,-7.21,18.99,-8.59,22.05
22.845464944839478,-2.14,12.79,-7.88,15.17
22.961634159088135,2.57,7.31,-5.7,9.61
22.96419906616211,5.15,4.16,-2.33,7.01
22.966444969177246,6.0,2.18,1.24,6.5
22.97009515762329,4.8,1.4,2.22,5.47
22.973999977111816,2.83,2.03,0.3,3.49
22.97691297531128,1.32,3.9,-1.84,4.5
22.979228019714355,0.2,6.13,-2.32,6.55
22.994565963745117,-0.89,7.68,-1.77,7.93
22.99693012237549,-1.04,7.3,0.42,7.38
23.000489950180054,-1.48,6.87,1.79,7.25
23.00457191467285,-1.85,6.0,3.53,7.2
23.108913898468018,-1.85,4.96,4.72,7.09
23.111239910125732,-1.66,3.63,4.63,6.11
23.11378812789917,-1.05,2.4,4.11,4.87
23.116622924804688,0.15,1.47,3.41,3.71
23.1196129322052,1.97,0.54,2.63,3.33
23.123703002929688,3.46,-0.04,1.12,3.63
23.126601934432983,4.92,-0.9,-0.59,5.03
23.129024028778076,6.46,-1.85,-2.01,7.01
23.14456796646118,8.41,-2.77,-3.05,9.36
23.147001028060913,10.48,-3.51,-3.77,11.67
23.250804901123047,11.29,-2.76,-4.45,12.44
23.253765106201172,10.38,-0.41,-5.31,11.66
23.256019115447998,8.48,2.28,-6.15,10.72
23.259881019592285,6.54,4.05,-6.59,10.12
23.262542963027954,5.09,4.49,-5.93,9.01
23.265887022018433,4.51,3.95,-4.06,7.24
23.268903970718384,4.63,3.13,-1.48,5.78
23.272990942001343,4.84,2.38,0.97,5.48
23.27668595314026,4.76,1.84,1.89,5.44
23.27887797355652,4.36,1.35,1.34,4.75
23.38285493850708,3.82,0.89,0.22,3.92
23.385831832885742,3.53,0.32,-0.66,3.6
23.388038158416748,3.34,-0.31,-1.22,3.56
23.39184284210205,3.04,-0.96,-1.42,3.48
23.394171953201294,2.76,-1.33,-1.73,3.51
23.397998809814453,2.41,-1.12,-2.14,3.41
23.402045965194702,1.6,-0.56,-1.75,2.43
23.40590190887451,0.79,-0.58,-0.21,1.0
23.40989899635315,0.46,-1.73,1.98,2.66
23.41236686706543,1.14,-5.15,1.61,5.51
23.515480041503906,-5.77,-10.05,0.91,11.62
23.518414974212646,-24.46,-13.2,-1.67,27.84
23.5206561088562,-34.26,-12.53,-2.21,36.54
23.524142026901245,-22.15,-7.57,-0.61,23.41
23.52811288833618,-8.1,-3.5,-0.63,8.84
23.53074312210083,0.93,-1.46,0.41,1.77
23.546884059906006,4.97,-4.44,-2.64,7.16
23.54934000968933,6.18,-13.19,-3.67,15.02
23.553444862365723,5.79,-17.68,2.69,18.79
23.557554006576538,7.29,-10.45,7.6,14.83
23.660022974014282,8.78,-0.76,2.91,9.28
23.662455081939697,6.75,3.51,-3.58,8.4
23.664708137512207,4.3,5.14,-6.14,9.08
23.66834783554077,3.86,6.61,-7.52,10.73
23.672407150268555,4.55,7.34,-6.81,10.99
23.676378965377808,5.12,5.79,-4.45,8.91
23.679062843322754,4.09,3.07,-2.47,5.67
23.683109998703003,2.0,0.58,-1.54,2.58
23.687186002731323,1.12,-1.57,-0.29,1.95
23.69015097618103,1.22,-3.32,0.88,3.64
23.791939973831177,1.12,-4.11,1.34,4.46
23.794883012771606,0.12,-4.09,1.59,4.38
23.797066926956177,-1.69,-2.92,0.85,3.47
23.80101203918457,-3.85,-1.48,0.15,4.12
23.805070877075195,-5.54,-0.79,0.35,5.6
23.80801296234131,-6.59,-0.55,0.65,6.64
23.811620950698853,-5.77,-0.01,0.31,5.77
23.813872814178467,-3.34,0.61,0.15,3.39
23.828439950942993,-0.81,1.29,0.49,1.6
23.830827951431274,0.62,1.61,0.77,1.88
23.932136058807373,0.48,1.37,0.37,1.49
23.93506908416748,-1.0,0.38,-0.39,1.13
23.93730401992798,-2.83,-1.22,-0.93,3.21
23.941044807434082,-4.71,-2.83,-0.61,5.52
23.944710969924927,-6.11,-3.66,-0.22,7.12
23.94694995880127,-5.41,-3.23,-0.57,6.32
23.961375951766968,-2.95,-2.04,-0.16,3.59
23.963719844818115,-1.12,-1.36,1.23,2.14
23.967281818389893,-1.32,-1.59,0.5,2.12
23.971384048461914,-2.36,-2.45,-0.88,3.51
24.073433876037598,-2.69,-4.01,-0.82,4.89
24.076508045196533,-2.72,-6.61,0.51,7.16
24.079028129577637,-3.38,-8.52,1.74,9.32
24.08247399330139,-3.26,-7.53,0.89,8.25
24.086543083190918,-1.68,-4.6,-0.22,4.9
24.090621948242188,-0.95,-3.3,0.17,3.43
24.09362506866455,-2.79,-5.33,0.72,6.05
24.095879077911377,-4.93,-8.98,1.0,10.29
24.111099004745483,-5.69,-12.26,0.63,13.53
24.113450050354004,-5.01,-14.09,0.0,14.95
24.117308139801025,-3.59,-13.91,0.17,14.36
24.217689037322998,-3.21,-11.41,0.51,11.86
24.220666885375977,-3.16,-8.06,0.08,8.65
24.222872972488403,-3.83,-5.2,-1.18,6.56
24.2268328666687,-5.83,-3.2,-0.22,6.65
24.229289054870605,-7.83,-1.46,0.82,8.0
24.232781887054443,-8.79,0.53,0.88,8.84
24.236507892608643,-9.14,2.58,-0.28,9.5
24.24063014984131,-9.16,4.31,-2.61,10.45
24.24373197555542,-8.48,6.11,-5.98,12.04
24.245954036712646,-7.07,8.78,-10.28,15.25
24.358561992645264,-4.43,10.9,-11.22,16.25
24.361156940460205,-0.35,9.85,-8.11,12.76
24.36347794532776,3.67,7.24,-4.95,9.5
24.367162942886353,5.59,5.33,-2.61,8.15
24.371161937713623,4.98,4.28,-1.75,6.79
24.37506914138794,2.71,3.65,-2.17,5.03
24.3786940574646,0.58,3.51,-2.73,4.48
24.38093900680542,-0.89,4.13,-2.39,4.85
24.39515209197998,-2.04,5.22,-1.12,5.71
24.3975670337677,-3.37,6.15,0.29,7.01
24.49771785736084,-4.55,6.29,1.69,7.94
24.500635147094727,-5.2,5.77,2.81,8.26
24.50283193588257,-6.02,5.1,3.26,8.53
24.506654024124146,-6.22,3.67,3.67,8.1
24.511393070220947,-5.63,1.92,3.66,6.98
24.514348030090332,-4.63,0.63,2.85,5.47
24.518455982208252,-3.31,-0.29,1.81,3.78
24.522512912750244,-1.87,-0.87,0.91,2.25
24.525322914123535,-0.27,-1.25,0.28,1.3
24.527611017227173,1.8,-1.88,-0.46,2.64
24.62591791152954,3.95,-2.56,-0.86,4.78
24.62895393371582,5.5,-2.48,-0.94,6.1
24.631165981292725,6.1,-1.37,-1.52,6.43
24.634974002838135,7.09,-0.52,-2.53,7.54
24.63923692703247,7.83,0.2,-4.21,8.89
24.64357614517212,7.34,1.21,-5.36,9.16
24.646060943603516,5.61,2.54,-5.95,8.56
24.64944314956665,4.17,3.31,-6.39,8.31
24.653406143188477,3.86,3.18,-6.57,8.25
24.65753984451294,4.36,2.6,-6.13,7.95
24.755258083343506,5.43,1.89,-5.08,7.67
24.757791996002197,6.23,1.47,-3.23,7.16
24.760332107543945,6.28,1.46,-1.39,6.59
24.762840032577515,5.97,1.41,-0.51,6.15
24.779202938079834,5.6,1.25,-1.01,5.82
24.781633853912354,4.94,1.04,-1.89,5.39
24.78514003753662,4.09,0.79,-2.82,5.03
24.789094924926758,3.2,0.79,-3.74,4.98
24.79192304611206,2.74,0.85,-4.1,5.0
24.79533290863037,2.78,1.05,-3.87,4.87
24.891601085662842,4.26,0.55,-1.35,4.5
24.89461398124695,9.67,-1.45,0.85,9.81
24.89688014984131,18.36,-7.49,-13.38,23.92
24.90036392211914,4.57,-12.89,-21.55,25.52
24.904141902923584,-14.68,-16.86,14.21,26.48
24.90827703475952,-22.15,-13.44,-1.55,25.95
24.911099910736084,-19.39,-4.88,-0.81,20.01
24.913344860076904,-3.65,-1.21,17.56,17.97
24.928789138793945,12.23,1.31,15.46,19.75
24.93106698989868,14.63,2.33,-6.37,16.12
25.029327869415283,3.43,-3.39,-14.13,14.93
25.032299041748047,-8.05,-20.75,-4.97,22.8
25.03453302383423,-8.34,-34.0,5.57,35.44
25.038367986679077,2.33,-14.38,15.55,21.3
25.042495012283325,5.89,1.3,1.9,6.32
25.04472303390503,4.27,5.88,-11.46,13.56
25.048455953598022,5.4,8.05,-9.87,13.83
25.052463054656982,8.62,8.06,-5.12,12.86
25.056504011154175,9.64,6.48,-3.51,12.13
25.059351921081543,8.66,3.69,-3.95,10.2
25.15474796295166,7.35,1.03,-3.81,8.34
25.157713890075684,6.46,-1.32,-1.98,6.88
25.16000199317932,4.56,-2.44,-0.94,5.25
25.16226601600647,1.57,-2.45,-0.94,3.05
25.179646968841553,-1.53,-2.29,-0.61,2.82
25.182021141052246,-3.55,-2.15,0.43,4.17
25.185450077056885,-4.97,-1.64,1.63,5.48
25.189553022384644,-5.82,-0.88,1.39,6.04
25.193774938583374,-5.95,-0.29,1.39,6.11
25.19596290588379,-5.41,0.27,1.32,5.57
25.199671030044556,-4.58,0.61,1.0,4.72
25.297287940979004,-3.84,0.77,0.48,3.94
25.300262928009033,-3.29,0.78,0.11,3.38
25.30244207382202,-2.96,0.73,-0.51,3.09
25.306199073791504,-2.73,0.55,-0.97,2.94
25.30915594100952,-2.57,0.16,-0.88,2.72
25.31139612197876,-2.67,-0.23,-0.54,2.73
25.315349102020264,-2.94,-0.7,-0.07,3.02
25.31937599182129,-3.17,-1.02,0.27,3.34
25.323455810546875,-3.67,-1.29,0.82,3.97
25.32623291015625,-4.52,-1.6,0.68,4.84
25.421514987945557,-4.77,-2.12,0.09,5.22
25.42445707321167,-4.31,-2.77,-0.61,5.15
25.426766872406006,-3.85,-3.71,-0.75,5.39
25.42909598350525,-4.23,-5.03,-0.01,6.57
25.44600486755371,-5.6,-6.47,0.9,8.6
25.44840693473816,-6.89,-7.6,2.01,10.45
25.45197892189026,-7.66,-8.34,3.66,11.9
25.456104040145874,-7.98,-9.02,5.57,13.26
25.460583925247192,-8.08,-10.06,6.25,14.33
25.46285581588745,-7.82,-11.61,5.34,14.98
25.55992603302002,-7.35,-14.32,4.06,16.6
25.56281089782715,-7.56,-18.32,2.56,19.98
25.565062999725342,-8.18,-20.66,0.65,22.22
25.56855010986328,-7.68,-18.34,-0.4,19.88
25.5725040435791,-6.58,-13.6,-0.81,15.12
25.576483011245728,-6.23,-10.54,-2.33,12.46
25.578747987747192,-6.96,-8.76,-3.54,11.73
25.582360982894897,-7.87,-5.81,-4.55,10.78
25.58641290664673,-8.43,-2.91,-5.12,10.28
25.590507984161377,-8.12,-0.67,-7.76,11.25
25.68651795387268,-7.24,0.8,-10.92,13.12
25.689087867736816,-6.29,1.52,-14.15,15.55
25.6927170753479,-4.47,1.98,-15.62,16.36
25.695163011550903,-1.11,3.06,-15.19,15.53
25.699141025543213,2.84,4.64,-11.18,12.43
25.70206308364868,4.96,6.18,-7.22,10.72
25.706110954284668,4.4,6.88,-7.39,11.01
25.709939002990723,2.2,6.23,-9.54,11.6
25.71221899986267,-0.31,5.31,-10.74,11.98
25.715960025787354,-2.19,5.28,-8.9,10.57
25.810574054718018,-4.15,6.12,-6.07,9.56
25.81355094909668,-6.08,6.84,-3.84,9.92
25.815778017044067,-7.73,7.0,-2.79,10.79
25.819538116455078,-9.01,7.23,-3.11,11.96
25.823539972305298,-9.03,6.96,-2.82,11.74
25.827535152435303,-8.0,6.51,-2.23,10.55
25.83014488220215,-6.15,5.56,-1.2,8.37
25.8334698677063,-4.43,4.0,-0.82,6.02
25.83642292022705,-3.31,2.11,-1.32,4.14
25.84048295021057,-2.86,-0.05,-2.34,3.69
25.933104038238525,-1.83,-2.27,-3.81,4.79
25.935688018798828,-0.06,-4.1,-5.9,7.18
25.9392991065979,1.99,-5.78,-7.85,9.94
25.94323992729187,3.97,-6.57,-8.67,11.57
25.945537090301514,5.75,-6.1,-8.41,11.87
25.94923210144043,7.45,-5.02,-7.68,11.81
25.953206062316895,8.26,-3.42,-7.1,11.41
25.957309007644653,7.67,-1.63,-7.67,10.96
25.960898876190186,7.66,-1.16,-9.09,11.94
25.963436126708984,7.92,-2.05,-10.67,13.44
26.057838916778564,7.69,-2.73,-11.0,13.69
26.060959815979004,6.88,-2.52,-10.84,13.08
26.063621044158936,6.19,-1.28,-9.05,11.03
26.067768096923828,6.64,0.58,-7.44,9.98
26.071797847747803,7.85,2.0,-7.2,10.83
26.07577896118164,9.03,3.09,-8.05,12.48
26.079564094543457,10.4,3.28,-8.59,13.88
26.08174705505371,11.89,1.18,-7.2,13.95
26.09587812423706,12.55,-3.97,-3.63,13.65
26.09820795059204,7.57,-8.9,2.01,11.85
26.101848125457764,-0.71,-10.07,10.15,14.31
26.19761610031128,-4.13,-7.73,10.55,13.71
26.200541973114014,-5.53,-4.64,2.05,7.5
26.202786922454834,-6.92,-1.42,-6.72,9.74
26.206637859344482,-5.79,1.06,-10.4,11.95
26.211073875427246,-1.67,2.86,-8.89,9.48
26.213594913482666,3.13,4.0,-4.59,6.84
26.21706485748291,6.27,4.45,-0.73,7.72
26.221118927001953,7.27,3.36,-0.54,8.02
26.225211143493652,6.78,1.21,-2.1,7.2
26.228168964385986,5.47,-0.94,-3.39,6.5
26.321326971054077,3.88,-1.86,-2.91,5.19
26.32429003715515,2.41,-1.76,-2.04,3.61
26.326606035232544,0.86,-0.98,-2.56,2.87
26.328941822052002,-0.55,0.0,-2.7,2.75
26.332354068756104,-1.15,0.49,-1.68,2.09
26.336427927017212,-1.1,0.77,-0.25,1.36
26.340291023254395,-0.19,0.34,0.76,0.85
26.342983961105347,0.38,-0.38,1.17,1.28
26.345204830169678,0.46,-0.77,0.96,1.31
26.349316120147705,0.54,-0.9,1.03,1.47
26.44346594810486,0.36,-0.62,0.15,0.73
26.44645094871521,0.25,-0.45,-0.68,0.85
26.448659896850586,0.31,-0.34,-0.56,0.72
26.452450037002563,0.56,-0.13,-0.33,0.66
26.45649814605713,0.71,0.25,-0.49,0.89
26.461174964904785,0.44,0.55,-0.8,1.06
26.463846921920776,-0.06,0.43,-0.75,0.86
26.46786594390869,-0.92,0.2,-0.93,1.32
26.471982955932617,-1.83,-0.14,-0.87,2.03
26.476099014282227,-2.0,-0.68,-0.48,2.16
26.570698976516724,-1.88,-0.84,0.0,2.05
26.57311201095581,-1.63,-0.96,0.47,1.94
26.576662063598633,-1.24,-1.07,0.44,1.69
26.57900905609131,-1.04,-1.17,0.2,1.57
26.582919120788574,-1.09,-1.06,-0.04,1.52
26.585824012756348,-0.96,-0.75,-0.29,1.25
26.58985710144043,-0.61,-0.45,-0.22,0.78
26.594398975372314,-0.52,-0.19,-0.57,0.79
26.596909046173096,-0.58,-0.12,-0.87,1.05
26.600412845611572,-0.85,-0.26,-0.76,1.16
26.694003105163574,-1.37,-0.57,-0.77,1.67
26.69687795639038,-1.97,-1.17,-0.9,2.46
26.699162006378174,-2.54,-1.77,-0.8,3.19
26.702868938446045,-2.99,-2.43,-0.75,3.92
26.70585298538208,-3.46,-3.09,-0.45,4.66
26.709733963012695,-3.92,-3.71,-0.27,5.4
26.712013006210327,-4.61,-4.56,0.17,6.48
26.71605396270752,-5.4,-5.4,0.59,7.65
26.720111846923828,-5.69,-5.78,0.01,8.11
26.724173069000244,-5.18,-6.12,-0.17,8.01
26.816322803497314,-4.17,-8.31,0.81,9.33
26.81887698173523,-3.77,-12.61,1.51,13.24
26.822526931762695,-4.77,-16.6,1.31,17.32
26.82654905319214,-6.73,-17.12,0.87,18.41
26.828814029693604,-8.3,-14.47,-0.05,16.68
26.83294105529785,-9.44,-11.53,-1.03,14.93
26.83698081970215,-10.16,-8.96,-1.12,13.59
26.84107208251953,-9.52,-6.44,-0.51,11.5
26.8448748588562,-7.11,-4.3,0.01,8.3
26.84752893447876,-3.79,-2.99,-0.46,4.84
26.939595937728882,-1.32,-2.6,-1.31,3.19
26.94263195991516,-0.32,-2.03,-2.94,3.58
26.94489598274231,-0.28,-0.76,-4.59,4.66
26.947467803955078,-0.57,0.71,-5.77,5.84
26.963791847229004,-0.72,2.06,-6.36,6.72
26.96619701385498,-0.05,3.01,-5.09,5.91
26.969679832458496,0.16,3.69,-2.34,4.37
26.97372794151306,-0.89,4.29,-0.61,4.42
26.977906942367554,-2.27,4.85,-1.11,5.46
26.980154991149902,-3.19,5.26,-3.22,6.94
27.07289695739746,-3.32,5.18,-5.41,8.19
27.07589292526245,-2.42,4.65,-6.11,8.05
27.078124046325684,-0.96,3.9,-4.75,6.22
27.080693006515503,0.15,3.28,-2.04,3.86
27.09765601158142,0.56,3.18,0.18,3.23
27.10010600090027,0.32,3.84,0.49,3.88
27.10308599472046,-0.45,4.76,-0.31,4.79
27.10709285736084,-1.35,5.51,-0.84,5.73
27.111379146575928,-2.13,5.95,-0.6,6.34
27.113669872283936,-2.62,5.98,0.07,6.52
27.20604395866394,-2.77,5.84,0.64,6.49
27.20893692970276,-2.58,5.62,0.64,6.21
27.211050033569336,-2.28,5.46,0.25,5.92
27.213413953781128,-1.84,5.48,-0.17,5.78
27.23039197921753,-1.32,5.66,-0.49,5.83
27.23269510269165,-0.64,5.61,-0.49,5.66
27.236629009246826,0.23,5.52,-0.15,5.52
27.240798950195312,1.18,5.38,0.24,5.51
27.24492311477661,2.07,5.27,0.23,5.66
27.247182846069336,2.83,5.22,-0.17,5.94
27.25076389312744,3.42,5.27,-0.79,6.33
27.342711925506592,3.98,5.22,-1.36,6.7
27.34567403793335,4.64,5.07,-1.96,7.14
27.347882986068726,5.37,4.78,-2.52,7.61
27.35176181793213,5.99,4.47,-2.83,7.99
27.354692935943604,6.4,4.24,-2.94,8.22
27.358778953552246,6.97,4.01,-3.03,8.59
27.361950874328613,8.03,3.5,-3.39,9.39
27.364488124847412,9.03,2.82,-4.19,10.34
27.380836963653564,8.96,2.52,-4.73,10.44
27.383230924606323,7.94,2.77,-4.57,9.57
27.474731922149658,6.81,3.14,-4.06,8.52
27.478093147277832,5.9,3.27,-3.33,7.52
27.48070192337036,5.46,2.95,-2.74,6.78
27.48484992980957,5.55,2.26,-2.34,6.43
27.48889398574829,5.98,1.24,-2.06,6.44
27.492895126342773,6.24,0.17,-1.85,6.51
27.496667861938477,6.13,-0.59,-1.84,6.42
27.49888515472412,5.67,-0.94,-2.06,6.1
27.512324810028076,5.14,-0.85,-2.43,5.74
27.514709949493408,4.76,-0.35,-2.59,5.43
27.605494022369385,3.82,0.67,-2.3,4.5
27.60852599143982,1.9,1.94,-0.82,2.83
27.610769033432007,0.37,2.52,1.0,2.73
27.613083839416504,-0.59,0.85,4.06,4.18
27.630442142486572,-0.23,-6.85,5.87,9.02
27.632925033569336,-8.76,-17.1,-12.99,23.19
27.636337995529175,-23.5,-18.4,1.38,29.87
27.64017391204834,-18.0,-6.61,0.65,19.18
27.644192934036255,-5.91,4.2,-1.74,7.45
27.64644193649292,-6.92,0.16,-2.93,7.51
27.736441135406494,-14.69,-34.94,-8.64,38.87
27.739338874816895,-9.05,-62.1,13.98,64.29
27.741575002670288,7.19,-19.23,34.45,40.1
27.745234966278076,13.0,2.74,9.56,16.36
27.748037815093994,4.55,8.24,-9.7,13.51
27.752028942108154,-3.44,12.07,-16.86,21.01
27.756083011627197,-3.64,13.72,-12.13,18.67
27.760159969329834,5.39,17.53,-9.57,20.68
27.763811111450195,14.03,18.7,-9.18,25.11
27.766016960144043,16.53,10.63,-4.44,20.14
27.86499786376953,15.3,1.17,-3.56,15.75
27.867480039596558,11.0,-3.53,-4.51,12.4
27.869778156280518,7.18,-4.68,-3.42,9.22
27.873516082763672,3.6,-5.23,-1.13,6.44
27.877588987350464,0.14,-6.27,0.41,6.28
27.87997794151306,-3.73,-7.03,2.19,8.25
27.883845806121826,-7.79,-5.27,4.31,10.34
27.88790512084961,-9.47,-2.1,5.2,11.0
27.89178705215454,-7.85,0.94,4.57,9.13
27.895375967025757,-5.26,2.73,4.29,7.31
27.983766078948975,-3.16,2.51,3.0,5.02
27.986670970916748,-1.9,1.29,0.1,2.29
27.98895502090454,-2.07,0.22,-1.89,2.81
27.992733001708984,-2.55,-0.27,-1.62,3.03
27.995680809020996,-3.86,-0.53,-0.95,4.01
27.99813199043274,-5.65,-1.33,-1.04,5.89
28.013756036758423,-7.49,-2.13,-1.09,7.86
28.0161349773407,-8.99,-2.72,-0.57,9.4
28.020071029663086,-8.99,-2.91,-0.29,9.45
28.023838996887207,-7.35,-2.42,-0.47,7.75
28.114821910858154,-4.94,-1.19,-0.17,5.08
28.117311000823975,-2.54,-0.31,1.05,2.76
28.120898008346558,-0.79,-0.43,1.79,2.0
28.12505602836609,0.16,-1.87,0.97,2.11
28.12855291366577,-0.33,-4.94,1.82,5.27
28.131057024002075,-1.66,-7.53,3.3,8.38
28.13454294204712,-1.9,-7.0,3.15,7.9
28.138535976409912,-0.31,-3.38,1.2,3.6
28.142709016799927,1.01,-0.22,0.25,1.06
28.146431922912598,0.03,-0.74,1.42,1.6
28.23418402671814,-2.6,-5.12,3.05,6.5
28.23712992668152,-5.0,-10.52,4.07,12.33
28.239439010620117,-6.79,-15.88,3.66,17.65
28.24321413040161,-7.73,-20.05,2.74,21.66
28.246842861175537,-6.93,-19.74,2.18,21.03
28.24904203414917,-4.62,-13.84,1.29,14.64
28.264848947525024,-3.4,-7.43,0.76,8.2
28.267248153686523,-4.02,-3.74,0.2,5.49
28.271106958389282,-4.54,-1.44,-0.35,4.77
28.275259971618652,-5.25,0.96,0.22,5.34
28.278546810150146,-6.69,4.72,1.12,8.26
28.366164922714233,-8.74,8.82,1.34,12.48
28.36912703514099,-10.51,14.25,-1.17,17.74
28.37144708633423,-10.04,20.29,-5.55,23.3
28.37520408630371,-5.06,17.8,-6.93,19.76
28.379209995269775,1.66,10.95,-5.29,12.27
28.38176703453064,4.87,6.28,-3.28,8.59
28.385878086090088,5.36,2.99,-1.84,6.4
28.389907836914062,4.63,0.84,-1.01,4.81
28.394111156463623,3.2,0.48,-0.98,3.38
28.396389961242676,1.09,2.48,-1.0,2.88
28.48591899871826,0.04,4.88,-1.53,5.11
28.488804817199707,-1.23,7.19,-0.64,7.32
28.49104595184326,-2.4,8.6,0.4,8.93
28.495585918426514,-3.09,9.14,1.05,9.7
28.49824285507202,-3.29,9.03,1.81,9.77
28.502429962158203,-3.34,8.38,2.7,9.41
28.506465911865234,-3.2,7.4,3.51,8.79
28.510562896728516,-2.74,6.11,3.76,7.67
28.513458013534546,-1.9,4.85,3.78,6.43
28.5156409740448,-0.17,3.54,3.57,5.03
28.617106914520264,1.93,2.36,2.66,4.04
28.619553089141846,3.93,1.32,1.12,4.29
28.621865034103394,5.66,0.41,-0.62,5.7
28.625350952148438,7.05,-0.2,-1.97,7.32
28.629069805145264,8.42,-0.7,-2.57,8.83
28.631874084472656,10.41,-1.42,-3.51,11.07
28.6350519657135,12.57,-2.06,-4.92,13.65
28.63913893699646,12.61,-1.05,-6.09,14.04
28.643314838409424,10.34,1.47,-7.0,12.57
28.646973133087158,8.45,3.42,-8.43,12.41
28.734734058380127,7.71,4.03,-8.93,12.46
28.737679958343506,7.75,3.78,-7.49,11.42
28.740036010742188,8.18,2.74,-4.81,9.87
28.743785858154297,7.86,1.44,-1.82,8.19
28.747453927993774,6.11,0.43,0.45,6.14
28.749643802642822,3.64,-0.37,1.78,4.06
28.765231132507324,1.21,-0.41,2.39,2.71
28.767704010009766,0.02,-0.08,2.99,2.99
28.771697998046875,-0.75,-0.9,5.03,5.16
28.775611877441406,-2.67,-8.0,12.08,14.73
28.864248037338257,-12.56,-20.28,-11.18,26.34
28.866766929626465,-33.29,-31.08,-4.0,45.71
28.870273113250732,-37.58,-20.77,0.91,42.94
28.874120950698853,-15.03,-1.4,3.67,15.53
28.878119945526123,4.97,7.12,3.65,9.41
28.88039207458496,14.49,11.33,-2.09,18.51
28.884110927581787,7.45,4.52,-16.88,18.99
28.888153076171875,-5.45,-16.27,-18.6,25.3
28.892184019088745,-4.46,-47.8,-0.96,48.01
28.895610809326172,10.26,-26.3,21.62,35.55
28.983026027679443,17.12,-0.29,9.29,19.48
28.986002922058105,10.28,7.12,-5.58,13.69
28.988356113433838,2.16,10.91,-6.37,12.81
28.99204397201538,-0.3,12.71,-4.11,13.36
28.9957218170166,2.24,13.26,-2.66,13.7
28.99837899208069,4.5,11.39,-4.07,12.9
29.001673936843872,4.94,6.63,-2.78,8.72
29.005728006362915,4.34,1.1,-1.49,4.71
29.00987195968628,4.05,-3.62,-2.34,5.91
29.013525009155273,3.96,-6.6,-2.04,7.96
29.101158142089844,3.11,-8.34,0.48,8.91
29.104079961776733,1.08,-7.66,1.29,7.84
29.10637593269348,-1.64,-4.88,1.19,5.28
29.110129833221436,-4.26,-1.37,1.89,4.85
29.113816022872925,-5.59,1.42,2.38,6.23
29.116050004959106,-5.76,2.73,2.06,6.69
29.132539987564087,-5.37,3.02,1.33,6.3
29.134934902191162,-4.24,2.38,0.86,4.93
29.13884401321411,-2.8,0.5,0.53,2.89
29.143054962158203,-2.1,-0.9,0.01,2.28
29.23054790496826,-1.8,-1.88,-0.28,2.61
29.23311495780945,-1.9,-2.57,-0.24,3.2
29.23672103881836,-2.64,-2.82,-0.3,3.87
29.240581035614014,-3.97,-2.85,0.21,4.89
29.244589805603027,-4.95,-2.57,0.59,5.6
29.246915817260742,-4.76,-1.79,0.74,5.13
29.25078582763672,-2.88,-0.41,0.31,2.92
29.254784107208252,-1.36,0.55,0.35,1.5
29.25904607772827,-1.27,0.27,0.64,1.44
29.263046979904175,-1.67,-1.11,0.79,2.15
29.265347003936768,-1.83,-2.78,1.34,3.58
29.353595972061157,-1.79,-4.67,2.63,5.65
29.356570959091187,-1.85,-5.65,3.5,6.89
29.35881996154785,-1.23,-4.54,2.79,5.46
29.362753868103027,-0.44,-2.61,1.92,3.26
29.365449905395508,-0.75,-2.21,2.28,3.26
29.368395805358887,-2.82,-3.98,2.73,5.58
29.372493028640747,-4.92,-5.98,2.76,8.22
29.376560926437378,-5.16,-7.45,2.24,9.33
29.379551887512207,-3.95,-9.17,2.1,10.2
29.381792068481445,-2.91,-11.99,1.6,12.44
29.482070922851562,-2.09,-14.84,0.33,14.99
29.48450803756714,-1.55,-15.21,-0.29,15.29
29.48681902885437,-1.05,-11.96,0.03,12.0
29.490412950515747,-1.0,-8.09,0.21,8.15
29.49443483352661,-2.16,-5.32,0.17,5.74
29.4967041015625,-3.92,-1.68,0.44,4.28
29.500818967819214,-6.15,2.15,1.41,6.66
29.50487184524536,-8.35,5.29,1.77,10.04
29.50892210006714,-10.0,7.81,1.81,12.81
29.512507915496826,-10.04,11.74,-0.87,15.47
29.598701000213623,-9.34,16.73,-4.95,19.78
29.601722955703735,-6.09,15.36,-6.19,17.64
29.60407304763794,-0.51,9.16,-4.28,10.12
29.60765314102173,3.04,4.73,-1.14,5.73
29.610687017440796,4.52,1.75,1.22,4.99
29.614377975463867,4.07,0.16,1.69,4.4
29.616621017456055,2.3,0.46,0.36,2.37
29.63279390335083,0.52,2.33,-1.31,2.72
29.63524293899536,-0.86,4.84,-1.66,5.18
29.639392852783203,-1.75,6.59,-0.66,6.85
29.72715401649475,-2.29,7.65,0.29,7.99
29.730113983154297,-2.44,7.82,1.04,8.25
29.732353925704956,-2.19,7.5,1.49,7.95
29.74962091445923,-1.66,6.82,2.07,7.31
29.752016067504883,-1.08,6.01,2.57,6.62
29.7554349899292,-0.58,5.24,2.62,5.88
29.75934886932373,0.4,4.36,2.38,4.98
29.762830018997192,1.92,3.49,1.79,4.36
29.7651469707489,3.78,2.69,1.19,4.78
29.768615007400513,5.53,2.16,0.51,5.95
29.856049060821533,6.86,1.74,-0.4,7.08
29.859063148498535,7.64,1.3,-1.32,7.86
29.86125087738037,8.16,0.66,-1.83,8.38
29.863544940948486,9.18,-0.31,-2.09,9.42
29.86714506149292,10.66,-1.47,-2.55,11.05
29.871193885803223,11.14,-1.55,-3.6,11.8
29.87418508529663,9.54,0.06,-4.81,10.68
29.878140926361084,6.93,2.38,-5.83,9.36
29.880433082580566,5.29,3.73,-6.03,8.84
29.884098052978516,5.34,3.71,-5.24,8.35
29.970766067504883,6.73,2.37,-3.9,8.13
29.973772048950195,7.49,0.94,-2.74,8.03
29.976001977920532,7.09,-0.34,-1.07,7.17
29.97979497909546,5.82,-1.05,0.41,5.92
29.982481956481934,4.17,-0.92,0.66,4.32
29.98574686050415,2.47,-0.18,-0.19,2.48
29.98976182937622,1.48,0.21,-1.08,1.84
29.993937969207764,1.03,-1.12,-0.89,1.76
29.997509956359863,2.16,-6.7,-2.84,7.59
29.999711990356445,-9.52,-16.04,-11.49,21.9
30.097219944000244,-31.83,-24.45,4.64,40.4
30.099696159362793,-37.06,-22.25,9.78,44.31
30.102000951766968,-20.58,-6.65,3.49,21.9
30.105599880218506,-4.5,3.46,1.8,5.95
30.109760999679565,7.13,8.67,7.94,13.74
30.113194942474365,9.07,5.79,-4.16,11.53
30.11569309234619,-1.13,-9.46,-11.53,14.95
30.131916046142578,-6.58,-39.89,0.72,40.43
30.134305953979492,3.28,-30.95,11.09,33.04
30.137750148773193,14.3,-0.5,10.03,17.47
30.225697994232178,13.06,8.53,-8.66,17.84
30.22943902015686,9.21,12.08,-14.98,21.33
30.232340812683105,7.49,13.58,-11.5,19.3
30.235352993011475,5.58,13.01,-6.03,15.38
30.2394859790802,3.23,9.95,-4.71,11.47
30.243610858917236,1.11,5.69,-2.46,6.29
30.246580123901367,1.34,0.8,0.46,1.62
30.24878215789795,2.21,-4.2,0.68,4.79
30.264622926712036,2.66,-7.3,0.12,7.77
30.266855001449585,2.16,-8.13,1.47,8.53
30.270653009414673,0.71,-7.08,2.08,7.41
30.35784387588501,-2.03,-4.88,2.44,5.82
30.360846042633057,-4.69,-1.96,1.77,5.38
30.363135814666748,-6.32,0.56,0.27,6.35
30.36574697494507,-6.46,2.02,-0.84,6.82
30.382725954055786,-5.49,2.12,-0.81,5.94
30.38513493537903,-4.37,1.14,-0.3,4.52
30.38878107070923,-3.38,-0.12,-0.05,3.38
30.393003940582275,-2.62,-1.42,0.65,3.05
30.39638090133667,-2.33,-2.24,1.48,3.55
30.398617029190063,-2.4,-2.55,2.05,4.05
30.486284971237183,-2.82,-2.53,1.94,4.25
30.489296913146973,-3.46,-2.83,1.89,4.85
30.491513967514038,-4.52,-3.88,1.42,6.12
30.4951810836792,-6.33,-5.25,1.3,8.32
30.497501850128174,-6.98,-5.15,1.08,8.74
30.50147795677185,-4.9,-2.84,0.12,5.66
30.505530834197998,-1.47,0.28,-0.68,1.64
30.50968098640442,0.5,2.39,-0.59,2.51
30.513147830963135,0.24,2.92,-0.42,2.95
30.515524864196777,-1.48,1.09,-0.38,1.87
30.60176396369934,-2.96,-1.99,0.41,3.59
30.604674816131592,-3.02,-5.25,1.51,6.24
30.607017040252686,-2.58,-8.3,2.01,8.92
30.610744953155518,-2.07,-11.1,2.37,11.53
30.613783836364746,-2.5,-12.82,2.2,13.24
30.61633801460266,-3.78,-12.71,1.95,13.4
30.631400108337402,-4.68,-10.66,1.41,11.72
30.633808135986328,-4.78,-8.08,0.73,9.41
30.637326955795288,-4.66,-6.03,-0.25,7.62
30.64027690887451,-4.75,-4.45,-0.43,6.52
30.72707200050354,-5.68,-2.51,0.45,6.22
30.73011803627014,-6.29,0.17,0.79,6.34
30.732627868652344,-6.53,3.27,0.93,7.36
30.73602294921875,-7.01,5.68,1.01,9.07
30.740045070648193,-7.39,7.12,0.52,10.27
30.744080066680908,-6.7,8.74,-1.6,11.12
30.74702501296997,-5.27,10.86,-4.7,12.95
30.749233961105347,-3.15,10.64,-6.87,13.05
30.764178037643433,0.1,6.8,-6.04,9.09
30.766515970230103,3.19,2.97,-2.61,5.08
30.85288715362549,5.29,0.62,0.1,5.32
30.8558189868927,5.43,-0.01,0.99,5.51
30.858022928237915,3.5,0.76,0.1,3.58
30.861752033233643,1.35,2.33,-1.09,2.9
30.864036083221436,-0.4,4.17,-0.99,4.3
30.868125915527344,-1.9,5.53,-0.03,5.84
30.871937036514282,-2.87,5.63,1.24,6.43
30.876075983047485,-3.26,5.28,1.94,6.5
30.878902912139893,-3.13,4.69,2.02,5.98
30.881157875061035,-2.21,4.01,2.04,5.01
30.96999502182007,-1.08,3.38,1.7,3.93
30.972928047180176,0.02,2.78,1.52,3.16
30.975152015686035,1.21,2.61,1.48,3.23
30.978865146636963,3.11,2.69,1.38,4.33
30.981162071228027,5.69,2.58,0.84,6.3
30.98514199256897,7.92,2.42,-0.15,8.28
30.988964080810547,9.07,2.28,-1.34,9.44
30.992938995361328,9.13,2.28,-2.28,9.68
30.995634078979492,8.54,2.56,-2.42,9.23
30.99910593032837,7.95,2.93,-1.9,8.68
31.09282398223877,7.71,2.97,-1.53,8.4
31.09642791748047,7.61,2.68,-1.82,8.27
31.099206924438477,7.13,2.28,-2.84,8.0
31.10236883163452,6.09,2.22,-4.03,7.63
31.1062068939209,5.22,2.37,-4.73,7.43
31.110344886779785,5.05,2.34,-4.29,7.02
31.113675117492676,5.61,2.07,-3.13,6.74
31.11591386795044,6.43,1.5,-2.02,6.9
31.13082504272461,6.73,0.84,-1.21,6.88
31.133161067962646,6.25,0.31,-0.78,6.3
31.228121995925903,5.34,-0.05,-0.57,5.37
31.23110580444336,4.33,-0.35,-0.46,4.36
31.23336696624756,3.26,-0.63,-0.52,3.36
31.237061977386475,2.25,-0.9,-0.82,2.55
31.241064071655273,1.34,-1.03,-1.04,1.98
31.245224952697754,0.52,-1.51,-0.24,1.61
31.247478008270264,0.29,-3.57,0.14,3.58
31.25029182434082,0.17,-9.34,-0.3,9.34
31.254276037216187,-10.3,-14.82,0.35,18.05
31.258270978927612,-27.49,-15.64,5.29,32.06
31.262117862701416,-30.44,-11.76,7.02,33.37
31.354637145996094,-19.46,-6.4,1.15,20.51
31.357362031936646,-8.5,-2.78,-0.21,8.94
31.35963487625122,-1.56,-1.22,2.19,2.95
31.363574028015137,2.09,-2.54,-6.74,7.49
31.366057872772217,2.06,-9.59,-8.45,12.94
31.369526863098145,2.5,-15.68,1.02,15.91
31.373512029647827,9.1,-10.41,6.56,15.3
31.37769103050232,15.7,-1.25,2.49,15.94
31.380598068237305,14.45,4.13,-3.2,15.36
31.382762908935547,8.47,5.95,-6.84,12.4
31.490782976150513,3.17,5.82,-8.55,10.81
31.493410110473633,1.02,5.19,-7.24,8.96
31.495718002319336,0.44,4.16,-4.1,5.85
31.499258995056152,0.58,2.39,-0.78,2.58
31.503350019454956,0.87,-0.73,1.04,1.53
31.507396936416626,0.33,-3.64,-0.03,3.65
31.511512994766235,-0.28,-4.83,-0.9,4.92
31.515372037887573,-0.01,-4.68,0.58,4.71
31.517585039138794,-0.12,-3.56,1.09,3.72
31.53141498565674,-1.2,-1.69,0.8,2.22
31.623898029327393,-2.4,-0.07,0.68,2.49
31.626844882965088,-3.1,0.9,0.2,3.23
31.62912607192993,-2.63,1.13,0.02,2.86
31.631442070007324,-1.7,1.15,-0.4,2.09
31.63446283340454,-0.67,0.76,-0.7,1.23
31.63849902153015,-0.02,0.2,-0.58,0.61
31.642550945281982,-0.42,-0.53,-0.08,0.68
31.646764993667603,-1.37,-1.06,0.49,1.8
31.6493558883667,-1.71,-0.95,0.73,2.08
31.65259885787964,-1.66,-0.7,1.28,2.2
31.745033025741577,-2.01,-0.66,1.6,2.65
31.748144149780273,-2.77,-0.79,1.22,3.12
31.750365018844604,-3.23,-0.76,1.01,3.46
31.754256010055542,-2.96,-0.42,0.61,3.05
31.75832986831665,-2.17,0.36,0.04,2.2
31.761330127716064,-1.15,1.05,-0.76,1.73
31.764883041381836,-0.51,0.96,-1.6,1.93
31.767081022262573,-0.87,-0.52,-1.86,2.11
31.782740116119385,-1.45,-2.62,-2.12,3.66
31.785218000411987,-1.8,-4.51,-2.36,5.39
31.8779079914093,-2.34,-6.06,-1.11,6.59
31.880911827087402,-2.9,-6.33,-0.32,6.97
31.883311986923218,-2.67,-4.71,-0.83,5.47
31.88684606552124,-1.91,-2.86,-0.57,3.48
31.890885829925537,-1.68,-2.76,-0.32,3.24
31.89498805999756,-2.13,-5.48,-0.42,5.89
31.89772891998291,-2.64,-9.96,0.35,10.3
31.899914026260376,-3.4,-15.4,0.52,15.77
31.915061950683594,-5.16,-21.23,0.85,21.86
31.917531967163086,-6.17,-25.24,0.69,25.99
32.012571811676025,-5.04,-24.03,1.11,24.57
32.01556205749512,-5.36,-18.11,1.07,18.91
32.01783514022827,-8.07,-12.83,-0.63,15.17
32.02154302597046,-10.94,-9.53,-1.37,14.57
32.02555990219116,-12.55,-7.22,-0.68,14.49
32.0295569896698,-12.94,-5.38,0.21,14.01
32.03186082839966,-12.82,-2.31,1.03,13.06
32.03558683395386,-12.51,1.52,0.11,12.6
32.0396409034729,-12.8,4.13,-4.71,14.25
32.043707847595215,-13.57,7.57,-13.16,20.36
32.13643407821655,-12.98,10.9,-21.06,27.03
32.13904595375061,-6.96,8.78,-23.24,25.79
32.142685890197754,4.09,4.02,-16.89,17.83
32.14719295501709,13.85,-0.72,-7.53,15.78
32.14988088607788,16.33,-3.36,-1.96,16.78
32.153960943222046,11.89,-3.56,-3.75,12.96
32.158103942871094,5.97,-2.38,-9.14,11.17
32.16237115859985,2.02,-0.11,-12.62,12.78
32.166139125823975,-0.95,3.01,-11.92,12.33
32.16838598251343,-3.36,5.38,-8.42,10.54
32.27057099342346,-5.3,6.15,-5.11,9.59
32.273029804229736,-5.97,5.48,-2.28,8.41
32.2753701210022,-5.93,3.91,-0.26,7.1
32.279295921325684,-5.79,2.2,0.87,6.25
32.28159713745117,-5.48,0.45,1.46,5.68
32.28536081314087,-5.01,-1.2,1.2,5.28
32.28942012786865,-5.06,-2.71,0.21,5.74
32.293489933013916,-4.83,-3.15,-2.08,6.13
32.29640293121338,-4.37,-3.03,-4.3,6.83
32.299015045166016,-4.46,-2.82,-5.94,7.94
32.30236792564392,-2.77,-2.15,-7.45,8.23
32.395663022994995,-0.4,-2.2,-8.25,8.54
32.39860391616821,1.84,-2.5,-8.78,9.31
32.40084791183472,4.16,-2.62,-9.14,10.37
32.404701948165894,6.38,-2.59,-8.93,11.27
32.40874910354614,7.45,-2.31,-8.1,11.24
32.41261601448059,6.44,-1.0,-7.84,10.19
32.41488981246948,4.61,0.22,-7.81,9.07
32.418806076049805,3.05,0.67,-8.15,8.72
32.42287802696228,1.78,0.66,-8.06,8.28
32.426937103271484,2.01,-0.53,-7.34,7.62
32.518961906433105,4.06,-2.7,-7.15,8.65
32.521541118621826,5.1,-3.85,-7.79,10.07
32.5252640247345,5.01,-3.41,-7.22,9.42
32.529200077056885,5.7,-2.18,-6.31,8.77
32.53151988983154,6.85,-0.88,-6.63,9.57
32.53544497489929,8.43,-0.13,-7.71,11.42
32.53952407836914,9.14,0.03,-7.22,11.64
32.54360485076904,8.19,-0.05,-5.53,9.88
32.54651594161987,7.52,0.35,-4.61,8.82
32.548835039138794,7.45,1.16,-5.39,9.26
32.64228296279907,7.87,0.74,-8.02,11.26
32.645400047302246,5.77,-2.36,-8.2,10.3
32.64767408370972,-3.01,-6.7,0.79,7.38
32.65033197402954,-4.54,-11.74,15.7,20.12
32.666675090789795,4.22,-13.45,14.45,20.18
32.66905403137207,3.87,-9.48,5.21,11.48
32.67260789871216,-1.44,-3.79,-2.16,4.59
32.67670392990112,-3.85,0.29,-4.14,5.66
32.679439067840576,-2.66,3.5,-4.45,6.25
32.68164682388306,-1.23,6.22,-3.97,7.48
32.77475690841675,-0.1,7.6,-5.83,9.57
32.77785396575928,2.88,6.14,-10.01,12.09
32.7800989151001,7.99,2.68,-11.32,14.11
32.78261399269104,12.76,-0.82,-4.87,13.68
32.799519062042236,13.66,-2.71,2.6,14.16
32.801923990249634,9.14,-2.72,3.17,10.04
32.805418968200684,3.1,-1.51,-1.34,3.69
32.809579849243164,-1.62,-0.04,-1.52,2.22
32.81456899642944,-3.88,0.77,1.29,4.16
32.81707811355591,-4.17,0.61,1.27,4.4
